trialsType,trialsNum,trialNum,trials1.thisRepN,trials1.thisTrialN,trials1.thisN,trials1.thisIndex,trials2.thisRepN,trials2.thisTrialN,trials2.thisN,trials2.thisIndex,instr1.started,instr1.stopped,fix.started,fix.stopped,trial1Mouse.x,trial1Mouse.y,trial1Mouse.leftButton,trial1Mouse.midButton,trial1Mouse.rightButton,trial1Mouse.time,trial1Mouse.started,trial1Mouse.stopped,step,targetangle_deg,trial1Target.started,trial1Target.stopped,trial1Home.started,trial1Home.stopped,trial1Cursor.started,trial1Cursor.stopped,trial1Num.started,trial1Num.stopped,trial2Mouse.x,trial2Mouse.y,trial2Mouse.leftButton,trial2Mouse.midButton,trial2Mouse.rightButton,trial2Mouse.time,trial2Mouse.started,trial2Mouse.stopped,trial2Target.started,trial2Target.stopped,trial2Home.started,trial2Home.stopped,trial2Cursor.started,trial2Cursor.stopped,trial2Num.started,trial2Num.stopped,participant,session,date,expName,psychopyVersion,frameRate,
1,1,1,0,0,0,0,,,,,20.870492900023237,None,21.41874820017256,None,"[-0.20052083333333334, -0.20052083333333334, -0.20052083333333334, -0.20052083333333334, -0.20052083333333334, -0.20052083333333334, -0.20052083333333334, -0.20052083333333334, -0.20052083333333334, -0.20052083333333334, -0.20052083333333334, -0.20052083333333334, -0.20052083333333334, -0.20052083333333334, -0.20052083333333334, -0.20052083333333334, -0.20052083333333334, -0.20052083333333334, -0.20052083333333334, -0.20052083333333334, -0.20052083333333334, -0.20052083333333334, -0.20052083333333334, -0.20052083333333334, -0.20052083333333334, -0.20052083333333334, -0.20052083333333334, -0.20052083333333334, -0.20052083333333334, -0.20052083333333334, -0.20052083333333334, -0.20052083333333334, -0.20052083333333334, -0.20052083333333334, -0.20052083333333334, -0.20052083333333334, -0.20052083333333334, -0.20052083333333334, -0.20052083333333334, -0.20052083333333334, -0.20052083333333334, -0.20052083333333334, -0.20052083333333334, -0.20052083333333334, -0.20052083333333334, -0.20052083333333334, -0.20052083333333334, -0.20052083333333334, -0.20052083333333334, -0.20052083333333334, -0.20052083333333334, -0.20052083333333334, -0.20052083333333334, -0.20052083333333334, -0.20052083333333334, -0.20052083333333334, -0.20052083333333334, -0.20052083333333334, -0.20052083333333334, -0.20052083333333334, -0.19921875, -0.19010416666666666, -0.19010416666666666, -0.19010416666666666, -0.19270833333333334, -0.19661458333333334, -0.19661458333333334, -0.19661458333333334, -0.17447916666666666, -0.14713541666666666, -0.12760416666666666, -0.10807291666666667, -0.09375, -0.08723958333333333, -0.08333333333333333, -0.07552083333333333, -0.07291666666666667, -0.07161458333333333, -0.0703125, -0.06770833333333333, -0.0625, -0.0546875, -0.036458333333333336, -0.022135416666666668, -0.0078125, -0.0026041666666666665, 0.0026041666666666665, 0.00390625, 0.005208333333333333, 0.006510416666666667, 0.006510416666666667, 0.006510416666666667, 0.006510416666666667, 0.006510416666666667, 0.0078125, 0.009114583333333334, 0.009114583333333334, 0.009114583333333334, 0.009114583333333334, 0.009114583333333334, 0.009114583333333334, 0.009114583333333334, 0.009114583333333334, 0.009114583333333334, 0.009114583333333334, 0.009114583333333334, 0.009114583333333334, 0.009114583333333334, 0.009114583333333334, 0.009114583333333334, 0.0026041666666666665, -0.009114583333333334, -0.01953125, -0.018229166666666668, -0.010416666666666666, 0.028645833333333332, 0.10286458333333333, 0.20442708333333334, 0.3151041666666667, 0.3841145833333333, 0.3997395833333333, 0.4036458333333333, 0.4036458333333333, 0.4010416666666667, 0.3984375, 0.3971354166666667, 0.4049479166666667, 0.4270833333333333, 0.4388020833333333, 0.4401041666666667, 0.4401041666666667, 0.4401041666666667, 0.4401041666666667, 0.4388020833333333, 0.4283854166666667, 0.4088541666666667, 0.3880208333333333, 0.3684895833333333, 0.3489583333333333, 0.33984375, 0.3333333333333333, 0.328125, 0.3229166666666667, 0.3177083333333333, 0.3125, 0.3033854166666667, 0.2942708333333333, 0.2838541666666667, 0.2682291666666667, 0.2526041666666667, 0.23828125, 0.22786458333333334, 0.22526041666666666, 0.22526041666666666, 0.22916666666666666, 0.23307291666666666, 0.23697916666666666, 0.2421875, 0.2526041666666667, 0.2591145833333333, 0.2682291666666667, 0.2747395833333333, 0.2799479166666667, 0.28515625, 0.2916666666666667, 0.2942708333333333, 0.296875, 0.296875, 0.2981770833333333, 0.30078125, 0.30078125, 0.3020833333333333, 0.3020833333333333, 0.3020833333333333, 0.3020833333333333, 0.3020833333333333, 0.3020833333333333, 0.3020833333333333, 0.2955729166666667, 0.28125, 0.2682291666666667, 0.2526041666666667, 0.21223958333333334, 0.17838541666666666, 0.14583333333333334, 0.12109375, 0.1015625, 0.09114583333333333, 0.08072916666666667, 0.07682291666666667, 0.07291666666666667, 0.07161458333333333, 0.07161458333333333, 0.07161458333333333, 0.07161458333333333, 0.07161458333333333, 0.07161458333333333, 0.07161458333333333]","[-0.10286458333333333, -0.10286458333333333, -0.10286458333333333, -0.10286458333333333, -0.10286458333333333, -0.10286458333333333, -0.10286458333333333, -0.10286458333333333, -0.10416666666666667, -0.10807291666666667, -0.109375, -0.10677083333333333, -0.10677083333333333, -0.10807291666666667, -0.10546875, -0.10546875, -0.10677083333333333, -0.10677083333333333, -0.10677083333333333, -0.10677083333333333, -0.10677083333333333, -0.10677083333333333, -0.10677083333333333, -0.10677083333333333, -0.10677083333333333, -0.10677083333333333, -0.10677083333333333, -0.10677083333333333, -0.10677083333333333, -0.10677083333333333, -0.10677083333333333, -0.10677083333333333, -0.10677083333333333, -0.10677083333333333, -0.10677083333333333, -0.10677083333333333, -0.10677083333333333, -0.10677083333333333, -0.10677083333333333, -0.10677083333333333, -0.10677083333333333, -0.10677083333333333, -0.10677083333333333, -0.10677083333333333, -0.10677083333333333, -0.10677083333333333, -0.10677083333333333, -0.10677083333333333, -0.10286458333333333, -0.10286458333333333, -0.10286458333333333, -0.10286458333333333, -0.10286458333333333, -0.10286458333333333, -0.10286458333333333, -0.10286458333333333, -0.10286458333333333, -0.10286458333333333, -0.10286458333333333, -0.1015625, -0.09895833333333333, -0.0859375, -0.0859375, -0.0859375, -0.0859375, -0.08854166666666667, -0.08984375, -0.09114583333333333, -0.09244791666666667, -0.09244791666666667, -0.09114583333333333, -0.08984375, -0.08854166666666667, -0.0859375, -0.0859375, -0.08463541666666667, -0.08333333333333333, -0.08333333333333333, -0.08333333333333333, -0.08333333333333333, -0.08333333333333333, -0.08333333333333333, -0.07942708333333333, -0.07291666666666667, -0.0625, -0.053385416666666664, -0.041666666666666664, -0.033854166666666664, -0.02734375, -0.02734375, -0.02734375, -0.02734375, -0.02734375, -0.026041666666666668, -0.01953125, -0.014322916666666666, -0.009114583333333334, -0.0026041666666666665, 0.005208333333333333, 0.01171875, 0.014322916666666666, 0.016927083333333332, 0.016927083333333332, 0.016927083333333332, 0.016927083333333332, 0.016927083333333332, 0.016927083333333332, 0.016927083333333332, 0.018229166666666668, 0.01953125, 0.029947916666666668, 0.045572916666666664, 0.06640625, 0.078125, 0.08463541666666667, 0.125, 0.18880208333333334, 0.2838541666666667, 0.39453125, 0.4817708333333333, 0.5, 0.5, 0.5, 0.5, 0.5, 0.4934895833333333, 0.4739583333333333, 0.44921875, 0.4427083333333333, 0.4401041666666667, 0.4401041666666667, 0.4401041666666667, 0.4388020833333333, 0.4348958333333333, 0.4283854166666667, 0.4192708333333333, 0.40625, 0.3880208333333333, 0.3606770833333333, 0.33984375, 0.32421875, 0.3177083333333333, 0.3151041666666667, 0.3151041666666667, 0.3138020833333333, 0.3138020833333333, 0.3125, 0.3098958333333333, 0.3059895833333333, 0.30078125, 0.2916666666666667, 0.2747395833333333, 0.2669270833333333, 0.2604166666666667, 0.2552083333333333, 0.25, 0.24739583333333334, 0.24609375, 0.23958333333333334, 0.23567708333333334, 0.23567708333333334, 0.23567708333333334, 0.23567708333333334, 0.23697916666666666, 0.24088541666666666, 0.24348958333333334, 0.24609375, 0.24869791666666666, 0.2513020833333333, 0.2552083333333333, 0.2552083333333333, 0.2565104166666667, 0.2565104166666667, 0.2565104166666667, 0.2565104166666667, 0.2565104166666667, 0.2565104166666667, 0.2565104166666667, 0.2565104166666667, 0.2565104166666667, 0.2565104166666667, 0.2552083333333333, 0.2421875, 0.23046875, 0.21354166666666666, 0.19791666666666666, 0.18359375, 0.17578125, 0.16796875, 0.1640625, 0.16145833333333334, 0.15885416666666666, 0.15885416666666666, 0.15885416666666666, 0.15885416666666666, 0.15885416666666666, 0.15885416666666666, 0.16015625]","[0, 0, 0, 0, 0, 0, 0, 0, 0, 0, 0, 0, 0, 0, 0, 0, 0, 0, 0, 0, 0, 0, 0, 0, 0, 0, 0, 0, 0, 0, 0, 0, 0, 0, 0, 0, 0, 0, 0, 0, 0, 0, 0, 0, 0, 0, 0, 0, 0, 0, 0, 0, 0, 0, 0, 0, 0, 0, 0, 0, 0, 0, 0, 0, 0, 0, 0, 0, 0, 0, 0, 0, 0, 0, 0, 0, 0, 0, 0, 0, 0, 0, 0, 0, 0, 0, 0, 0, 0, 0, 0, 0, 0, 0, 0, 0, 0, 0, 0, 0, 0, 0, 0, 0, 0, 0, 0, 0, 0, 0, 0, 0, 0, 0, 0, 0, 0, 0, 0, 0, 0, 0, 0, 0, 0, 0, 0, 0, 0, 0, 0, 0, 0, 0, 0, 0, 0, 0, 0, 0, 0, 0, 0, 0, 0, 0, 0, 0, 0, 0, 0, 0, 0, 0, 0, 0, 0, 0, 0, 0, 0, 0, 0, 0, 0, 0, 0, 0, 0, 0, 0, 0, 0, 0, 0, 0, 0, 0, 0, 0, 0, 0, 0, 0, 0, 0, 0, 0, 0, 0, 0, 0, 0, 0, 0, 0, 0, 0]","[0, 0, 0, 0, 0, 0, 0, 0, 0, 0, 0, 0, 0, 0, 0, 0, 0, 0, 0, 0, 0, 0, 0, 0, 0, 0, 0, 0, 0, 0, 0, 0, 0, 0, 0, 0, 0, 0, 0, 0, 0, 0, 0, 0, 0, 0, 0, 0, 0, 0, 0, 0, 0, 0, 0, 0, 0, 0, 0, 0, 0, 0, 0, 0, 0, 0, 0, 0, 0, 0, 0, 0, 0, 0, 0, 0, 0, 0, 0, 0, 0, 0, 0, 0, 0, 0, 0, 0, 0, 0, 0, 0, 0, 0, 0, 0, 0, 0, 0, 0, 0, 0, 0, 0, 0, 0, 0, 0, 0, 0, 0, 0, 0, 0, 0, 0, 0, 0, 0, 0, 0, 0, 0, 0, 0, 0, 0, 0, 0, 0, 0, 0, 0, 0, 0, 0, 0, 0, 0, 0, 0, 0, 0, 0, 0, 0, 0, 0, 0, 0, 0, 0, 0, 0, 0, 0, 0, 0, 0, 0, 0, 0, 0, 0, 0, 0, 0, 0, 0, 0, 0, 0, 0, 0, 0, 0, 0, 0, 0, 0, 0, 0, 0, 0, 0, 0, 0, 0, 0, 0, 0, 0, 0, 0, 0, 0, 0, 0]","[0, 0, 0, 0, 0, 0, 0, 0, 0, 0, 0, 0, 0, 0, 0, 0, 0, 0, 0, 0, 0, 0, 0, 0, 0, 0, 0, 0, 0, 0, 0, 0, 0, 0, 0, 0, 0, 0, 0, 0, 0, 0, 0, 0, 0, 0, 0, 0, 0, 0, 0, 0, 0, 0, 0, 0, 0, 0, 0, 0, 0, 0, 0, 0, 0, 0, 0, 0, 0, 0, 0, 0, 0, 0, 0, 0, 0, 0, 0, 0, 0, 0, 0, 0, 0, 0, 0, 0, 0, 0, 0, 0, 0, 0, 0, 0, 0, 0, 0, 0, 0, 0, 0, 0, 0, 0, 0, 0, 0, 0, 0, 0, 0, 0, 0, 0, 0, 0, 0, 0, 0, 0, 0, 0, 0, 0, 0, 0, 0, 0, 0, 0, 0, 0, 0, 0, 0, 0, 0, 0, 0, 0, 0, 0, 0, 0, 0, 0, 0, 0, 0, 0, 0, 0, 0, 0, 0, 0, 0, 0, 0, 0, 0, 0, 0, 0, 0, 0, 0, 0, 0, 0, 0, 0, 0, 0, 0, 0, 0, 0, 0, 0, 0, 0, 0, 0, 0, 0, 0, 0, 0, 0, 0, 0, 0, 0, 0, 0]","[0.010661300038918853, 0.02372499997727573, 0.04199329996481538, 0.05921520013362169, 0.0757859000004828, 0.09316000016406178, 0.11005110014230013, 0.1262125000357628, 0.1434190000873059, 0.15982990013435483, 0.17641640012152493, 0.19304420007392764, 0.2097700999584049, 0.22648270009085536, 0.24272019998170435, 0.25972520001232624, 0.2756706001237035, 0.29243619996123016, 0.309134199982509, 0.3258829000405967, 0.34246600000187755, 0.3591774001251906, 0.37569120014086366, 0.3923957000952214, 0.4090391001664102, 0.4261068000923842, 0.442510399967432, 0.4591266999486834, 0.4758191001601517, 0.4924624999985099, 0.5091038001701236, 0.5258713001385331, 0.5426421000156552, 0.5592741000000387, 0.5761363001074642, 0.5923385000787675, 0.6096449000760913, 0.6263389000669122, 0.6431680000387132, 0.6591310000512749, 0.6759582001250237, 0.6924680001102388, 0.7091214000247419, 0.7258607000112534, 0.7425486999563873, 0.759384399978444, 0.7757626001257449, 0.7938153001014143, 0.8097320001106709, 0.8267095000483096, 0.843250600155443, 0.8600733000785112, 0.8766475000884384, 0.8930486000608653, 0.9098910000175238, 0.9264839000534266, 0.943239500047639, 0.959906900068745, 0.9766349999699742, 0.9936898001469672, 1.0104653001762927, 1.026542500127107, 1.0430620999541134, 1.0601668001618236, 1.0769150000996888, 1.0937334999907762, 1.1099782001692802, 1.1266677000094205, 1.1425433000549674, 1.1594293999951333, 1.1758910999633372, 1.1923420000821352, 1.2097060000523925, 1.2259405001532286, 1.2426347001455724, 1.2596913001034409, 1.2761248000897467, 1.292423800099641, 1.3093818000052124, 1.3260282000992447, 1.342709599994123, 1.3594068000093102, 1.376070600003004, 1.3925507999956608, 1.4095062999986112, 1.425953899975866, 1.4426910001784563, 1.4596133001614362, 1.4762803001794964, 1.4923564000055194, 1.508854700019583, 1.5255257000681013, 1.542458500014618, 1.5592310000211, 1.5758710999507457, 1.5937173999845982, 1.60935669997707, 1.6257313000969589, 1.642651000060141, 1.6591684001032263, 1.6760675001423806, 1.69224560004659, 1.7093911999836564, 1.7255854001268744, 1.742383100092411, 1.7588180000893772, 1.7754329000599682, 1.792161599965766, 1.8087999001145363, 1.825757100014016, 1.8424515000078827, 1.859350300161168, 1.8758082001004368, 1.8924501000437886, 1.9090929001104087, 1.9258008000906557, 1.9424189999699593, 1.959064100170508, 1.9757026999723166, 1.9926487000193447, 2.0091262999922037, 2.025811200030148, 2.042579500004649, 2.059434400172904, 2.07572660013102, 2.092469000024721, 2.1090723001398146, 2.1260977000929415, 2.1423627000767738, 2.1587823999579996, 2.1752900001592934, 2.192562800133601, 2.2091947000008076, 2.225873999996111, 2.24240170000121, 2.2593976000789553, 2.275724200066179, 2.2925156999845058, 2.309002400143072, 2.3259128001518548, 2.3428859000559896, 2.3593509001657367, 2.375803800066933, 2.3923287000507116, 2.40890850010328, 2.4257867999840528, 2.4427843999583274, 2.459381900029257, 2.475990599952638, 2.4925401001237333, 2.509089200058952, 2.525712399976328, 2.542316900100559, 2.559046900132671, 2.575660099973902, 2.5923932001460344, 2.6089351000264287, 2.6256856000982225, 2.6423408000264317, 2.659389400156215, 2.675584099953994, 2.6925834000576288, 2.7089265000540763, 2.7258358001708984, 2.7423982999753207, 2.7593956000637263, 2.7756572000216693, 2.7922229000832886, 2.8090117000974715, 2.8254788001067936, 2.8423856999725103, 2.858913999982178, 2.8755700001493096, 2.8921090001240373, 2.9085462000221014, 2.9252073999959975, 2.941972899949178, 2.958898999961093, 2.9760356000624597, 2.9921797001734376, 3.0088943999726325, 3.0254244001116604, 3.042094900039956, 3.0589711000211537, 3.075558800017461, 3.092123300069943, 3.1092954000923783, 3.125645900145173, 3.142250700155273, 3.1588867001701146, 3.1760250001680106, 3.1922830999828875, 3.2084757001139224, 3.225301300175488, 3.2416532000061125, 3.258449099957943, 3.2752525999676436, 3.2920453001279384]",22.498232800047845,None,"[1, 1, 1, 1, 1, 1, 1, 1, 1, 1, 1, 1, 1, 1, 1, 1, 1, 1, 1, 1, 1, 1, 1, 1, 1, 1, 1, 1, 1, 1, 1, 1, 1, 1, 1, 1, 1, 1, 1, 1, 1, 1, 1, 1, 1, 1, 1, 1, 1, 1, 1, 1, 1, 1, 1, 1, 1, 1, 1, 1, 1, 1, 1, 1, 1, 1, 1, 1, 1, 1, 1, 1, 1, 1, 1, 1, 1, 1, 1, 1, 1, 1, 1, 1, 1, 1, 1, 1, 1, 1, 1, 1, 1, 1, 1, 2, 2, 2, 2, 2, 2, 2, 2, 2, 2, 2, 2, 2, 2, 2, 2, 2, 2, 2, 2, 2, 2, 2, 2, 2, 2, 2, 2, 2, 2, 2, 2, 2, 2, 2, 2, 2, 2, 2, 2, 2, 2, 2, 2, 2, 2, 2, 2, 2, 2, 2, 2, 2, 2, 2, 2, 2, 2, 2, 2, 2, 2, 2, 2, 2, 2, 2, 2, 2, 2, 2, 3, 3, 3, 3, 3, 3, 3, 3, 3, 3, 3, 3, 3, 3, 3, 3, 3, 3, 3, 3, 3, 3, 3, 3, 3, 3, 3, 3, 3, 3, 3, 3]",40,22.498232800047845,None,22.498232800047845,None,22.498232800047845,None,22.498232800047845,None,,,,,,,,,,,,,,,,,a,001,2020_Jun_24_1953,pAdaptTest3,2020.1.3,59.95408713153207,
1,1,2,0,1,1,1,,,,,,,,,"[0.07161458333333333, 0.07291666666666667, 0.07291666666666667, 0.07421875, 0.07552083333333333, 0.07552083333333333, 0.07552083333333333, 0.07552083333333333, 0.07552083333333333, 0.07552083333333333, 0.07682291666666667, 0.07682291666666667, 0.07682291666666667]","[0.16015625, 0.16276041666666666, 0.1640625, 0.16536458333333334, 0.16666666666666666, 0.16666666666666666, 0.16666666666666666, 0.16666666666666666, 0.16666666666666666, 0.16666666666666666, 0.16666666666666666, 0.16666666666666666, 0.16666666666666666]","[0, 0, 0, 0, 0, 0, 0, 0, 0, 0, 0, 0, 0]","[0, 0, 0, 0, 0, 0, 0, 0, 0, 0, 0, 0, 0]","[0, 0, 0, 0, 0, 0, 0, 0, 0, 0, 0, 0, 0]","[0.004548100056126714, 0.01549010002054274, 0.03732900018803775, 0.05499109998345375, 0.07132360013201833, 0.0885227001272142, 0.10483100009150803, 0.12134830001741648, 0.1379218001384288, 0.15485640009865165, 0.17121230019256473, 0.1878307000733912, 0.20449000014923513]",25.79327840008773,None,"[1, 1, 1, 1, 1, 1, 1, 1, 1, 1, 1, 1, 1]",50,25.79327840008773,None,25.79327840008773,None,25.79327840008773,None,25.79327840008773,None,,,,,,,,,,,,,,,,,a,001,2020_Jun_24_1953,pAdaptTest3,2020.1.3,59.95408713153207,
1,1,3,0,2,2,2,,,,,,,,,"[0.07682291666666667, 0.07682291666666667, 0.07682291666666667, 0.078125, 0.078125, 0.07942708333333333, 0.07942708333333333, 0.08072916666666667, 0.08072916666666667, 0.08203125, 0.08333333333333333, 0.08463541666666667, 0.08723958333333333]","[0.16666666666666666, 0.16666666666666666, 0.16666666666666666, 0.16666666666666666, 0.16666666666666666, 0.16666666666666666, 0.16666666666666666, 0.16666666666666666, 0.16666666666666666, 0.16666666666666666, 0.16666666666666666, 0.16796875, 0.16927083333333334]","[0, 0, 0, 0, 0, 0, 0, 0, 0, 0, 0, 0, 0]","[0, 0, 0, 0, 0, 0, 0, 0, 0, 0, 0, 0, 0]","[0, 0, 0, 0, 0, 0, 0, 0, 0, 0, 0, 0, 0]","[0.004072000039741397, 0.014385400107130408, 0.026956999907270074, 0.04347619996406138, 0.060107599943876266, 0.07739700004458427, 0.09373180009424686, 0.11022830009460449, 0.12687389994971454, 0.14394149999134243, 0.16032289993017912, 0.1772394001018256, 0.1940027999226004]",26.00388210010715,None,"[1, 1, 1, 1, 1, 1, 1, 1, 1, 1, 1, 1, 1]",40,26.00388210010715,None,26.00388210010715,None,26.00388210010715,None,26.00388210010715,None,,,,,,,,,,,,,,,,,a,001,2020_Jun_24_1953,pAdaptTest3,2020.1.3,59.95408713153207,
1,1,4,0,3,3,3,,,,,,,,,"[0.08723958333333333, 0.08854166666666667, 0.08984375, 0.09375, 0.09375, 0.09375, 0.09375, 0.09375, 0.09375, 0.09375, 0.09375, 0.09375]","[0.171875, 0.171875, 0.171875, 0.17708333333333334, 0.17838541666666666, 0.17838541666666666, 0.17838541666666666, 0.17838541666666666, 0.17838541666666666, 0.17838541666666666, 0.17838541666666666, 0.1796875]","[0, 0, 0, 0, 0, 0, 0, 0, 0, 0, 0, 0]","[0, 0, 0, 0, 0, 0, 0, 0, 0, 0, 0, 0]","[0, 0, 0, 0, 0, 0, 0, 0, 0, 0, 0, 0]","[0.004814699990674853, 0.015973499976098537, 0.04162369994446635, 0.059126999927684665, 0.07596429996192455, 0.09200379997491837, 0.10873769992031157, 0.12535049999132752, 0.14205630007199943, 0.15871930005960166, 0.1756689001340419, 0.19212700007483363]",26.205908300122246,None,"[1, 1, 1, 1, 1, 1, 1, 1, 1, 1, 1, 1]",50,26.205908300122246,None,26.205908300122246,None,26.205908300122246,None,26.205908300122246,None,,,,,,,,,,,,,,,,,a,001,2020_Jun_24_1953,pAdaptTest3,2020.1.3,59.95408713153207,
1,1,5,0,4,4,4,,,,,,,,,"[0.09375, 0.09375, 0.09375, 0.09375, 0.09375, 0.09375, 0.09375, 0.09375, 0.09375, 0.09375, 0.09375, 0.09375]","[0.1796875, 0.1796875, 0.1796875, 0.1796875, 0.1796875, 0.1796875, 0.1796875, 0.1796875, 0.1796875, 0.1796875, 0.1796875, 0.1796875]","[0, 0, 0, 0, 0, 0, 0, 0, 0, 0, 0, 0]","[0, 0, 0, 0, 0, 0, 0, 0, 0, 0, 0, 0]","[0, 0, 0, 0, 0, 0, 0, 0, 0, 0, 0, 0]","[0.00821519992314279, 0.01865780004300177, 0.04234709986485541, 0.059895799960941076, 0.07663999986834824, 0.09332809993065894, 0.11033049994148314, 0.126438400009647, 0.14308739989064634, 0.15987579990178347, 0.176616600016132, 0.19329699990339577]",26.40754030016251,None,"[1, 1, 1, 1, 1, 1, 1, 1, 1, 1, 1, 1]",40,26.40754030016251,None,26.40754030016251,None,26.40754030016251,None,26.40754030016251,None,,,,,,,,,,,,,,,,,a,001,2020_Jun_24_1953,pAdaptTest3,2020.1.3,59.95408713153207,
1,1,6,0,5,5,5,,,,,,,,,"[0.09375, 0.09375, 0.09375, 0.09375, 0.09375, 0.09375, 0.09375, 0.09375, 0.09375, 0.09375, 0.09375, 0.09375, 0.09375]","[0.1796875, 0.1796875, 0.1796875, 0.1796875, 0.1796875, 0.1796875, 0.1796875, 0.1796875, 0.1796875, 0.1796875, 0.1796875, 0.1796875, 0.17578125]","[0, 0, 0, 0, 0, 0, 0, 0, 0, 0, 0, 0, 0]","[0, 0, 0, 0, 0, 0, 0, 0, 0, 0, 0, 0, 0]","[0, 0, 0, 0, 0, 0, 0, 0, 0, 0, 0, 0, 0]","[0.004034299869090319, 0.014441699953749776, 0.026583799859508872, 0.04316659993492067, 0.059756599832326174, 0.0770149000454694, 0.09319679997861385, 0.10976079991087317, 0.12646139995194972, 0.1434917999431491, 0.15985119994729757, 0.1768050999380648, 0.1940229998435825]",26.603787700179964,None,"[1, 1, 1, 1, 1, 1, 1, 1, 1, 1, 1, 1, 1]",50,26.603787700179964,None,26.603787700179964,None,26.603787700179964,None,26.603787700179964,None,,,,,,,,,,,,,,,,,a,001,2020_Jun_24_1953,pAdaptTest3,2020.1.3,59.95408713153207,
1,1,7,0,6,6,6,,,,,,,,,"[0.09375, 0.09375, 0.09375, 0.09375, 0.09375, 0.09375, 0.09375, 0.09375, 0.09375, 0.09375, 0.09375, 0.09375, 0.09375]","[0.17447916666666666, 0.17317708333333334, 0.17317708333333334, 0.17838541666666666, 0.17708333333333334, 0.17838541666666666, 0.17838541666666666, 0.17838541666666666, 0.17838541666666666, 0.17838541666666666, 0.17838541666666666, 0.17838541666666666, 0.17838541666666666]","[0, 0, 0, 0, 0, 0, 0, 0, 0, 0, 0, 0, 0]","[0, 0, 0, 0, 0, 0, 0, 0, 0, 0, 0, 0, 0]","[0, 0, 0, 0, 0, 0, 0, 0, 0, 0, 0, 0, 0]","[0.007679400034248829, 0.0182801999617368, 0.041739000007510185, 0.059016000013798475, 0.07573979999870062, 0.0924154999665916, 0.10930410004220903, 0.12568069994449615, 0.1422741999849677, 0.15883590001612902, 0.17550779995508492, 0.19217179995030165, 0.20890219998545945]",26.808313500136137,None,"[1, 1, 1, 1, 1, 1, 1, 1, 1, 1, 1, 1, 1]",40,26.808313500136137,None,26.808313500136137,None,26.808313500136137,None,26.808313500136137,None,,,,,,,,,,,,,,,,,a,001,2020_Jun_24_1953,pAdaptTest3,2020.1.3,59.95408713153207,
1,1,8,0,7,7,7,,,,,,,,,"[0.09375, 0.09375, 0.09375, 0.09375, 0.09375, 0.09375, 0.09375, 0.09375, 0.09375, 0.09375]","[0.17838541666666666, 0.17838541666666666, 0.17838541666666666, 0.17838541666666666, 0.17838541666666666, 0.17838541666666666, 0.17838541666666666, 0.17838541666666666, 0.17838541666666666, 0.17838541666666666]","[0, 0, 0, 0, 0, 0, 0, 0, 0, 0]","[0, 0, 0, 0, 0, 0, 0, 0, 0, 0]","[0, 0, 0, 0, 0, 0, 0, 0, 0, 0]","[0.00413980009034276, 0.014997299993410707, 0.02663019997999072, 0.043085699900984764, 0.05974820000119507, 0.07695830008015037, 0.09313199995085597, 0.10974729992449284, 0.12640599999576807, 0.14358230005018413]",27.02034220006317,None,"[1, 1, 1, 1, 1, 1, 1, 1, 1, 1]",50,27.02034220006317,None,27.02034220006317,None,27.02034220006317,None,27.02034220006317,None,,,,,,,,,,,,,,,,,a,001,2020_Jun_24_1953,pAdaptTest3,2020.1.3,59.95408713153207,
1,1,9,0,8,8,8,,,,,,,,,"[0.09375, 0.09375, 0.09375, 0.09375, 0.09375, 0.09375, 0.09375, 0.09375, 0.09375, 0.09375, 0.09375, 0.09375]","[0.17838541666666666, 0.17838541666666666, 0.17838541666666666, 0.17838541666666666, 0.17838541666666666, 0.17838541666666666, 0.17838541666666666, 0.17838541666666666, 0.17838541666666666, 0.17838541666666666, 0.17838541666666666, 0.17838541666666666]","[0, 0, 0, 0, 0, 0, 0, 0, 0, 0, 0, 0]","[0, 0, 0, 0, 0, 0, 0, 0, 0, 0, 0, 0]","[0, 0, 0, 0, 0, 0, 0, 0, 0, 0, 0, 0]","[0.005526700057089329, 0.016299800015985966, 0.040641400031745434, 0.05816589994356036, 0.07501289993524551, 0.09146320004947484, 0.10807280009612441, 0.12477159989066422, 0.1413781000301242, 0.15802429988980293, 0.17470670002512634, 0.19185979990288615]",27.17330880020745,None,"[1, 1, 1, 1, 1, 1, 1, 1, 1, 1, 1, 1]",40,27.17330880020745,None,27.17330880020745,None,27.17330880020745,None,27.17330880020745,None,,,,,,,,,,,,,,,,,a,001,2020_Jun_24_1953,pAdaptTest3,2020.1.3,59.95408713153207,
1,1,10,0,9,9,9,,,,,,,,,"[0.09375, 0.09375, 0.09375, 0.09375, 0.09375, 0.09375, 0.09375, 0.09375, 0.09375, 0.09375, 0.09375, 0.09375, 0.09375, 0.09375, 0.09375, 0.09375, 0.09375]","[0.17838541666666666, 0.17838541666666666, 0.17838541666666666, 0.17838541666666666, 0.17838541666666666, 0.17838541666666666, 0.17838541666666666, 0.17838541666666666, 0.17838541666666666, 0.17838541666666666, 0.17838541666666666, 0.17838541666666666, 0.17838541666666666, 0.17838541666666666, 0.17838541666666666, 0.17838541666666666, 0.17838541666666666]","[0, 0, 0, 0, 0, 0, 0, 0, 0, 0, 0, 0, 0, 0, 0, 0, 0]","[0, 0, 0, 0, 0, 0, 0, 0, 0, 0, 0, 0, 0, 0, 0, 0, 0]","[0, 0, 0, 0, 0, 0, 0, 0, 0, 0, 0, 0, 0, 0, 0, 0, 0]","[0.00808950001373887, 0.018508699955418706, 0.04106600000523031, 0.05875730002298951, 0.07523630000650883, 0.0918662000913173, 0.10862240009009838, 0.12523959996178746, 0.14197540003806353, 0.15870080003514886, 0.17536949994973838, 0.1919684000313282, 0.2085333000868559, 0.2253420001361519, 0.24347650003619492, 0.2585261999629438, 0.27577690011821687]",27.375878100050613,None,"[1, 1, 1, 1, 1, 1, 1, 1, 1, 1, 1, 1, 1, 1, 1, 1, 1]",50,27.375878100050613,None,27.375878100050613,None,27.375878100050613,None,27.375878100050613,None,,,,,,,,,,,,,,,,,a,001,2020_Jun_24_1953,pAdaptTest3,2020.1.3,59.95408713153207,
1,1,11,0,10,10,10,,,,,,,,,"[0.09375, 0.09375, 0.09375, 0.09375, 0.09375, 0.09375, 0.09375, 0.09375, 0.09375, 0.09375, 0.09375, 0.09375, 0.09375]","[0.17838541666666666, 0.17838541666666666, 0.17838541666666666, 0.17838541666666666, 0.17838541666666666, 0.17838541666666666, 0.17838541666666666, 0.17838541666666666, 0.17838541666666666, 0.17838541666666666, 0.17838541666666666, 0.17838541666666666, 0.17838541666666666]","[0, 0, 0, 0, 0, 0, 0, 0, 0, 0, 0, 0, 0]","[0, 0, 0, 0, 0, 0, 0, 0, 0, 0, 0, 0, 0]","[0, 0, 0, 0, 0, 0, 0, 0, 0, 0, 0, 0, 0]","[0.0041779999155551195, 0.016097599873319268, 0.02708359993994236, 0.04236770002171397, 0.05895940004847944, 0.07573530008085072, 0.09290669998154044, 0.10897090006619692, 0.12560419994406402, 0.14232790004462004, 0.15905410004779696, 0.1755047000478953, 0.19275749986991286]",27.65541400015354,None,"[1, 1, 1, 1, 1, 1, 1, 1, 1, 1, 1, 1, 1]",40,27.65541400015354,None,27.65541400015354,None,27.65541400015354,None,27.65541400015354,None,,,,,,,,,,,,,,,,,a,001,2020_Jun_24_1953,pAdaptTest3,2020.1.3,59.95408713153207,
1,1,12,0,11,11,11,,,,,,,,,"[0.09375, 0.09375, 0.09375, 0.09375, 0.09375, 0.09375, 0.09375, 0.09375, 0.09375, 0.09375, 0.09375, 0.09375, 0.09375, 0.09375, 0.09375, 0.09375, 0.09375, 0.09375, 0.09375, 0.09375, 0.09375, 0.09375, 0.09375, 0.09375]","[0.17838541666666666, 0.17838541666666666, 0.17838541666666666, 0.17838541666666666, 0.17838541666666666, 0.17838541666666666, 0.17838541666666666, 0.17838541666666666, 0.17838541666666666, 0.17838541666666666, 0.17838541666666666, 0.17838541666666666, 0.17838541666666666, 0.17838541666666666, 0.17838541666666666, 0.17838541666666666, 0.17838541666666666, 0.17838541666666666, 0.17838541666666666, 0.17838541666666666, 0.17838541666666666, 0.17838541666666666, 0.17838541666666666, 0.17838541666666666]","[0, 0, 0, 0, 0, 0, 0, 0, 0, 0, 0, 0, 0, 0, 0, 0, 0, 0, 0, 0, 0, 0, 0, 0]","[0, 0, 0, 0, 0, 0, 0, 0, 0, 0, 0, 0, 0, 0, 0, 0, 0, 0, 0, 0, 0, 0, 0, 0]","[0, 0, 0, 0, 0, 0, 0, 0, 0, 0, 0, 0, 0, 0, 0, 0, 0, 0, 0, 0, 0, 0, 0, 0]","[0.004726700019091368, 0.01516880001872778, 0.026440100045874715, 0.04234719998203218, 0.059080000035464764, 0.07579490006901324, 0.0925010999199003, 0.1094945000950247, 0.1258562000002712, 0.14225640008226037, 0.1590493000112474, 0.1757410999853164, 0.19249320006929338, 0.20919770002365112, 0.22594220004975796, 0.2424629998859018, 0.2590544999111444, 0.27573259989731014, 0.29235629993490875, 0.309093999909237, 0.3257174000609666, 0.3423514999449253, 0.3590345000848174, 0.3757265000604093]",27.85487290006131,None,"[1, 1, 1, 1, 1, 1, 1, 1, 1, 1, 1, 1, 1, 1, 1, 1, 1, 1, 1, 1, 1, 1, 1, 1]",50,27.85487290006131,None,27.85487290006131,None,27.85487290006131,None,27.85487290006131,None,,,,,,,,,,,,,,,,,a,001,2020_Jun_24_1953,pAdaptTest3,2020.1.3,59.95408713153207,
1,1,13,0,12,12,12,,,,,,,,,"[0.09375, 0.09375, 0.09375, 0.09375, 0.09375, 0.09375, 0.09375, 0.09375, 0.09375, 0.09375, 0.09375, 0.09375]","[0.17838541666666666, 0.17838541666666666, 0.17838541666666666, 0.17838541666666666, 0.17838541666666666, 0.17838541666666666, 0.17838541666666666, 0.17838541666666666, 0.17838541666666666, 0.17838541666666666, 0.17838541666666666, 0.17838541666666666]","[0, 0, 0, 0, 0, 0, 0, 0, 0, 0, 0, 0]","[0, 0, 0, 0, 0, 0, 0, 0, 0, 0, 0, 0]","[0, 0, 0, 0, 0, 0, 0, 0, 0, 0, 0, 0]","[0.004147799918428063, 0.015614100033417344, 0.027103699976578355, 0.04311740002594888, 0.05980899999849498, 0.07634070003405213, 0.09308229992166162, 0.11017880006693304, 0.1264450999442488, 0.14307520003058016, 0.16031170007772744, 0.17628130014054477]",28.23736450006254,None,"[1, 1, 1, 1, 1, 1, 1, 1, 1, 1, 1, 1]",40,28.23736450006254,None,28.23736450006254,None,28.23736450006254,None,28.23736450006254,None,,,,,,,,,,,,,,,,,a,001,2020_Jun_24_1953,pAdaptTest3,2020.1.3,59.95408713153207,
1,1,14,0,13,13,13,,,,,,,,,"[0.09375, 0.09375, 0.09375, 0.09375, 0.09375, 0.09375, 0.09375]","[0.17838541666666666, 0.17838541666666666, 0.17838541666666666, 0.17838541666666666, 0.17838541666666666, 0.17838541666666666, 0.17838541666666666]","[0, 0, 0, 0, 0, 0, 0]","[0, 0, 0, 0, 0, 0, 0]","[0, 0, 0, 0, 0, 0, 0]","[0.004171999869868159, 0.014886799966916442, 0.026764399837702513, 0.04345539980567992, 0.060190899996086955, 0.0769340000115335, 0.09395489981397986]",28.419620600063354,None,"[1, 1, 1, 1, 1, 1, 1]",50,28.419620600063354,None,28.419620600063354,None,28.419620600063354,None,28.419620600063354,None,,,,,,,,,,,,,,,,,a,001,2020_Jun_24_1953,pAdaptTest3,2020.1.3,59.95408713153207,
1,1,15,0,14,14,14,,,,,,,,,"[0.09375, 0.09375, 0.09375, 0.09375, 0.09375, 0.09375, 0.09375, 0.09375, 0.09375, 0.09375, 0.09375, 0.09375, 0.09375, 0.09375, 0.09375]","[0.17838541666666666, 0.17838541666666666, 0.17838541666666666, 0.17838541666666666, 0.17838541666666666, 0.17838541666666666, 0.17838541666666666, 0.17838541666666666, 0.17838541666666666, 0.17838541666666666, 0.17838541666666666, 0.17838541666666666, 0.17838541666666666, 0.17838541666666666, 0.17838541666666666]","[0, 0, 0, 0, 0, 0, 0, 0, 0, 0, 0, 0, 0, 0, 0]","[0, 0, 0, 0, 0, 0, 0, 0, 0, 0, 0, 0, 0, 0, 0]","[0, 0, 0, 0, 0, 0, 0, 0, 0, 0, 0, 0, 0, 0, 0]","[0.004324499983340502, 0.015352600021287799, 0.026693399995565414, 0.04237670009024441, 0.059023800073191524, 0.07565510016866028, 0.09232269995845854, 0.10890890005975962, 0.12562000006437302, 0.1421950999647379, 0.15887370007112622, 0.17550500016659498, 0.19226080016233027, 0.20897450018674135, 0.2262021000497043]",28.521666600136086,None,"[1, 1, 1, 1, 1, 1, 1, 1, 1, 1, 1, 1, 1, 1, 1]",40,28.521666600136086,None,28.521666600136086,None,28.521666600136086,None,28.521666600136086,None,,,,,,,,,,,,,,,,,a,001,2020_Jun_24_1953,pAdaptTest3,2020.1.3,59.95408713153207,
1,1,16,0,15,15,15,,,,,,,,,"[0.09375, 0.09375, 0.09375, 0.09375, 0.09375, 0.09375, 0.09375, 0.09375, 0.09375, 0.09375, 0.09375, 0.09375, 0.09375, 0.09375, 0.09375, 0.09375, 0.09375, 0.09375]","[0.17838541666666666, 0.17838541666666666, 0.17838541666666666, 0.17838541666666666, 0.17838541666666666, 0.17838541666666666, 0.17838541666666666, 0.17838541666666666, 0.17838541666666666, 0.17838541666666666, 0.17838541666666666, 0.17838541666666666, 0.17838541666666666, 0.17838541666666666, 0.17838541666666666, 0.17838541666666666, 0.17838541666666666, 0.17838541666666666]","[0, 0, 0, 0, 0, 0, 0, 0, 0, 0, 0, 0, 0, 0, 0, 0, 0, 0]","[0, 0, 0, 0, 0, 0, 0, 0, 0, 0, 0, 0, 0, 0, 0, 0, 0, 0]","[0, 0, 0, 0, 0, 0, 0, 0, 0, 0, 0, 0, 0, 0, 0, 0, 0, 0]","[0.004942100029438734, 0.016288600163534284, 0.04088510014116764, 0.05881380010396242, 0.07517560012638569, 0.09217489999718964, 0.10867960005998611, 0.1261545999441296, 0.1420656000263989, 0.15870720008388162, 0.17529050004668534, 0.1919881000649184, 0.20869150012731552, 0.22521069995127618, 0.24198399996384978, 0.25860069994814694, 0.2753177999984473, 0.2924131001345813]",28.755737400148064,None,"[1, 1, 1, 1, 1, 1, 1, 1, 1, 1, 1, 1, 1, 1, 1, 1, 1, 1]",50,28.755737400148064,None,28.755737400148064,None,28.755737400148064,None,28.755737400148064,None,,,,,,,,,,,,,,,,,a,001,2020_Jun_24_1953,pAdaptTest3,2020.1.3,59.95408713153207,
1,1,17,0,16,16,16,,,,,,,,,"[0.09375, 0.09375, 0.09375, 0.09375, 0.09375, 0.09375, 0.09375, 0.09375, 0.09375, 0.09375, 0.09375, 0.09375, 0.09375, 0.09375, 0.09375, 0.09375]","[0.17838541666666666, 0.17838541666666666, 0.17838541666666666, 0.17838541666666666, 0.17838541666666666, 0.17838541666666666, 0.17838541666666666, 0.17838541666666666, 0.17838541666666666, 0.17838541666666666, 0.17838541666666666, 0.17838541666666666, 0.17838541666666666, 0.17838541666666666, 0.17838541666666666, 0.17838541666666666]","[0, 0, 0, 0, 0, 0, 0, 0, 0, 0, 0, 0, 0, 0, 0, 0]","[0, 0, 0, 0, 0, 0, 0, 0, 0, 0, 0, 0, 0, 0, 0, 0]","[0, 0, 0, 0, 0, 0, 0, 0, 0, 0, 0, 0, 0, 0, 0, 0]","[0.004500499926507473, 0.01574359997175634, 0.04128080001100898, 0.058717899955809116, 0.07554319989867508, 0.09181090001948178, 0.10897379997186363, 0.12514199991710484, 0.14179359981790185, 0.15852479985915124, 0.17549159983173013, 0.1918307999148965, 0.2084998998325318, 0.2250800000037998, 0.2418317999690771, 0.25932860001921654]",29.055357900215313,None,"[1, 1, 1, 1, 1, 1, 1, 1, 1, 1, 1, 1, 1, 1, 1, 1]",40,29.055357900215313,None,29.055357900215313,None,29.055357900215313,None,29.055357900215313,None,,,,,,,,,,,,,,,,,a,001,2020_Jun_24_1953,pAdaptTest3,2020.1.3,59.95408713153207,
1,1,18,0,17,17,17,,,,,,,,,"[0.09375, 0.09375, 0.09375, 0.09375, 0.09375, 0.09375, 0.09375, 0.09375, 0.09375, 0.09375]","[0.17838541666666666, 0.17838541666666666, 0.17838541666666666, 0.17838541666666666, 0.17838541666666666, 0.17838541666666666, 0.17838541666666666, 0.17838541666666666, 0.17838541666666666, 0.17838541666666666]","[0, 0, 0, 0, 0, 0, 0, 0, 0, 0]","[0, 0, 0, 0, 0, 0, 0, 0, 0, 0]","[0, 0, 0, 0, 0, 0, 0, 0, 0, 0]","[0.005014500115066767, 0.015875100158154964, 0.039432300021871924, 0.05690530012361705, 0.07359770010225475, 0.09014240000396967, 0.10676770005375147, 0.12452620011754334, 0.14010290009900928, 0.15725770010612905]",29.324548000004143,None,"[1, 1, 1, 1, 1, 1, 1, 1, 1, 1]",50,29.324548000004143,None,29.324548000004143,None,29.324548000004143,None,29.324548000004143,None,,,,,,,,,,,,,,,,,a,001,2020_Jun_24_1953,pAdaptTest3,2020.1.3,59.95408713153207,
1,1,19,0,18,18,18,,,,,,,,,"[0.09375, 0.09375, 0.09375, 0.09375, 0.09375, 0.09375, 0.09375, 0.09375, 0.09375]","[0.17838541666666666, 0.17838541666666666, 0.17838541666666666, 0.17838541666666666, 0.17838541666666666, 0.17838541666666666, 0.17838541666666666, 0.17838541666666666, 0.17838541666666666]","[0, 0, 0, 0, 0, 0, 0, 0, 0]","[0, 0, 0, 0, 0, 0, 0, 0, 0]","[0, 0, 0, 0, 0, 0, 0, 0, 0]","[0.004304500063881278, 0.015480699948966503, 0.026599599979817867, 0.04299440002068877, 0.05982099985703826, 0.07626369991339743, 0.09240480000153184, 0.10901949997060001, 0.12563749984838068]",29.48820160003379,None,"[1, 1, 1, 1, 1, 1, 1, 1, 1]",40,29.48820160003379,None,29.48820160003379,None,29.48820160003379,None,29.48820160003379,None,,,,,,,,,,,,,,,,,a,001,2020_Jun_24_1953,pAdaptTest3,2020.1.3,59.95408713153207,
1,1,20,0,19,19,19,,,,,,,,,"[0.09375, 0.09375, 0.09375, 0.09375, 0.09375, 0.09375, 0.09375, 0.09375, 0.09375, 0.09375, 0.09375, 0.09375, 0.09375, 0.09375]","[0.17838541666666666, 0.17838541666666666, 0.17838541666666666, 0.17838541666666666, 0.17838541666666666, 0.17838541666666666, 0.17838541666666666, 0.17838541666666666, 0.17838541666666666, 0.17838541666666666, 0.17838541666666666, 0.17838541666666666, 0.17838541666666666, 0.17838541666666666]","[0, 0, 0, 0, 0, 0, 0, 0, 0, 0, 0, 0, 0, 0]","[0, 0, 0, 0, 0, 0, 0, 0, 0, 0, 0, 0, 0, 0]","[0, 0, 0, 0, 0, 0, 0, 0, 0, 0, 0, 0, 0, 0]","[0.004285099916160107, 0.01624999986961484, 0.041347599821165204, 0.05896199983544648, 0.07607749989256263, 0.09224709984846413, 0.10880389995872974, 0.1254775000270456, 0.14245769986882806, 0.15886570001021028, 0.1756148999556899, 0.19213659991510212, 0.2088095999788493, 0.22550519998185337]",29.622009200043976,None,"[1, 1, 1, 1, 1, 1, 1, 1, 1, 1, 1, 1, 1, 1]",50,29.622009200043976,None,29.622009200043976,None,29.622009200043976,None,29.622009200043976,None,,,,,,,,,,,,,,,,,a,001,2020_Jun_24_1953,pAdaptTest3,2020.1.3,59.95408713153207,
1,1,21,0,20,20,20,,,,,,,,,"[0.09375, 0.09375, 0.09375, 0.09375, 0.09375, 0.09375, 0.09375]","[0.17838541666666666, 0.17838541666666666, 0.17838541666666666, 0.17838541666666666, 0.17838541666666666, 0.17838541666666666, 0.17838541666666666]","[0, 0, 0, 0, 0, 0, 0]","[0, 0, 0, 0, 0, 0, 0]","[0, 0, 0, 0, 0, 0, 0]","[0.004211100051179528, 0.014792900066822767, 0.02718460001051426, 0.04265119996853173, 0.05934590008109808, 0.07593129994347692, 0.0932521999347955]",29.853349500102922,None,"[1, 1, 1, 1, 1, 1, 1]",40,29.853349500102922,None,29.853349500102922,None,29.853349500102922,None,29.853349500102922,None,,,,,,,,,,,,,,,,,a,001,2020_Jun_24_1953,pAdaptTest3,2020.1.3,59.95408713153207,
1,1,22,0,21,21,21,,,,,,,,,"[0.09375, 0.09375, 0.09375, 0.09375, 0.09375, 0.09375, 0.09375, 0.09375, 0.09375, 0.09375, 0.09375, 0.09375, 0.09375]","[0.17838541666666666, 0.17838541666666666, 0.17838541666666666, 0.17838541666666666, 0.17838541666666666, 0.17838541666666666, 0.17838541666666666, 0.17838541666666666, 0.17838541666666666, 0.17838541666666666, 0.17838541666666666, 0.17838541666666666, 0.17838541666666666]","[0, 0, 0, 0, 0, 0, 0, 0, 0, 0, 0, 0, 0]","[0, 0, 0, 0, 0, 0, 0, 0, 0, 0, 0, 0, 0]","[0, 0, 0, 0, 0, 0, 0, 0, 0, 0, 0, 0, 0]","[0.004493500106036663, 0.017027300084009767, 0.04132840014062822, 0.05898570013232529, 0.0755374999716878, 0.09215779998339713, 0.10883540008217096, 0.12567310011945665, 0.1423111001495272, 0.15889389999210835, 0.1755276001058519, 0.1921564000658691, 0.20939790015108883]",29.95538070006296,None,"[1, 1, 1, 1, 1, 1, 1, 1, 1, 1, 1, 1, 1]",50,29.95538070006296,None,29.95538070006296,None,29.95538070006296,None,29.95538070006296,None,,,,,,,,,,,,,,,,,a,001,2020_Jun_24_1953,pAdaptTest3,2020.1.3,59.95408713153207,
1,1,23,0,22,22,22,,,,,,,,,"[0.09375, 0.09375, 0.09375, 0.09375, 0.09375, 0.09375, 0.09375, 0.09375, 0.09375, 0.09375, 0.09375, 0.09375, 0.09375, 0.09375, 0.09375]","[0.17838541666666666, 0.17838541666666666, 0.17838541666666666, 0.17838541666666666, 0.17838541666666666, 0.17838541666666666, 0.17838541666666666, 0.17838541666666666, 0.17838541666666666, 0.17838541666666666, 0.17838541666666666, 0.17838541666666666, 0.17838541666666666, 0.17838541666666666, 0.17838541666666666]","[0, 0, 0, 0, 0, 0, 0, 0, 0, 0, 0, 0, 0, 0, 0]","[0, 0, 0, 0, 0, 0, 0, 0, 0, 0, 0, 0, 0, 0, 0]","[0, 0, 0, 0, 0, 0, 0, 0, 0, 0, 0, 0, 0, 0, 0]","[0.004162700148299336, 0.013999300077557564, 0.025797100039198995, 0.042168800020590425, 0.05889450013637543, 0.0758471000008285, 0.09213830018416047, 0.10892760008573532, 0.1254350000526756, 0.14211460016667843, 0.15875200019218028, 0.17549050017260015, 0.19222800014540553, 0.20886910008266568, 0.2254487001337111]",30.1704251000192,None,"[1, 1, 1, 1, 1, 1, 1, 1, 1, 1, 1, 1, 1, 1, 1]",40,30.1704251000192,None,30.1704251000192,None,30.1704251000192,None,30.1704251000192,None,,,,,,,,,,,,,,,,,a,001,2020_Jun_24_1953,pAdaptTest3,2020.1.3,59.95408713153207,
1,1,24,0,23,23,23,,,,,,,,,"[0.09375, 0.09375, 0.09375, 0.09375, 0.09375, 0.09375, 0.09375, 0.09375, 0.09375]","[0.17838541666666666, 0.17838541666666666, 0.17838541666666666, 0.17838541666666666, 0.17838541666666666, 0.17838541666666666, 0.17838541666666666, 0.17838541666666666, 0.17838541666666666]","[0, 0, 0, 0, 0, 0, 0, 0, 0]","[0, 0, 0, 0, 0, 0, 0, 0, 0]","[0, 0, 0, 0, 0, 0, 0, 0, 0]","[0.004076600074768066, 0.015289800008758903, 0.026926600141450763, 0.042943200096488, 0.0597208000253886, 0.07616779999807477, 0.09313579997979105, 0.10969680012203753, 0.12663880013860762]",30.403655500151217,None,"[1, 1, 1, 1, 1, 1, 1, 1, 1]",50,30.403655500151217,None,30.403655500151217,None,30.403655500151217,None,30.403655500151217,None,,,,,,,,,,,,,,,,,a,001,2020_Jun_24_1953,pAdaptTest3,2020.1.3,59.95408713153207,
1,1,25,0,24,24,24,,,,,,,,,"[0.09375, 0.09375, 0.09375, 0.09375, 0.09375, 0.09375, 0.09375, 0.09375, 0.09375, 0.09375, 0.09375, 0.09375, 0.09375, 0.09375, 0.09375]","[0.17838541666666666, 0.17838541666666666, 0.17838541666666666, 0.17838541666666666, 0.17838541666666666, 0.17838541666666666, 0.17838541666666666, 0.17838541666666666, 0.17838541666666666, 0.17838541666666666, 0.17838541666666666, 0.17838541666666666, 0.17838541666666666, 0.17838541666666666, 0.17838541666666666]","[0, 0, 0, 0, 0, 0, 0, 0, 0, 0, 0, 0, 0, 0, 0]","[0, 0, 0, 0, 0, 0, 0, 0, 0, 0, 0, 0, 0, 0, 0]","[0, 0, 0, 0, 0, 0, 0, 0, 0, 0, 0, 0, 0, 0, 0]","[0.004359799902886152, 0.016027099918574095, 0.04142359993420541, 0.06051549990661442, 0.07718589995056391, 0.09229359985329211, 0.1088139999192208, 0.12554819998331368, 0.14243639982305467, 0.15880589978769422, 0.17581729986704886, 0.1920785999391228, 0.20877049979753792, 0.2256235999520868, 0.2420724998228252]",30.538196200039238,None,"[1, 1, 1, 1, 1, 1, 1, 1, 1, 1, 1, 1, 1, 1, 1]",40,30.538196200039238,None,30.538196200039238,None,30.538196200039238,None,30.538196200039238,None,,,,,,,,,,,,,,,,,a,001,2020_Jun_24_1953,pAdaptTest3,2020.1.3,59.95408713153207,
1,1,26,0,25,25,25,,,,,,,,,"[0.09375, 0.09375, 0.09375, 0.09375, 0.09375, 0.09375, 0.09375, 0.09375, 0.09375, 0.09375, 0.09375, 0.09375]","[0.17838541666666666, 0.17838541666666666, 0.17838541666666666, 0.17838541666666666, 0.17838541666666666, 0.17838541666666666, 0.17838541666666666, 0.17838541666666666, 0.17838541666666666, 0.17838541666666666, 0.17838541666666666, 0.17838541666666666]","[0, 0, 0, 0, 0, 0, 0, 0, 0, 0, 0, 0]","[0, 0, 0, 0, 0, 0, 0, 0, 0, 0, 0, 0]","[0, 0, 0, 0, 0, 0, 0, 0, 0, 0, 0, 0]","[0.004150599939748645, 0.01521180011332035, 0.027140700025483966, 0.043223500018939376, 0.06008079997263849, 0.07653410010971129, 0.09323529992252588, 0.10997450002469122, 0.1270526999142021, 0.14332600007764995, 0.1600065000820905, 0.17711349995806813]",30.786798000102863,None,"[1, 1, 1, 1, 1, 1, 1, 1, 1, 1, 1, 1]",50,30.786798000102863,None,30.786798000102863,None,30.786798000102863,None,30.786798000102863,None,,,,,,,,,,,,,,,,,a,001,2020_Jun_24_1953,pAdaptTest3,2020.1.3,59.95408713153207,
1,1,27,0,26,26,26,,,,,,,,,"[0.09375, 0.09375, 0.09375, 0.09375, 0.09375, 0.09375, 0.09375, 0.09375, 0.09375]","[0.17838541666666666, 0.17838541666666666, 0.17838541666666666, 0.17838541666666666, 0.17838541666666666, 0.17838541666666666, 0.17838541666666666, 0.17838541666666666, 0.17838541666666666]","[0, 0, 0, 0, 0, 0, 0, 0, 0]","[0, 0, 0, 0, 0, 0, 0, 0, 0]","[0, 0, 0, 0, 0, 0, 0, 0, 0]","[0.0042900999542325735, 0.015384600032120943, 0.027037099935114384, 0.043038500007241964, 0.05946829984895885, 0.07610820000991225, 0.09276609984226525, 0.10943980002775788, 0.12685130001045763]",30.970589800039306,None,"[1, 1, 1, 1, 1, 1, 1, 1, 1]",40,30.970589800039306,None,30.970589800039306,None,30.970589800039306,None,30.970589800039306,None,,,,,,,,,,,,,,,,,a,001,2020_Jun_24_1953,pAdaptTest3,2020.1.3,59.95408713153207,
1,1,28,0,27,27,27,,,,,,,,,"[0.09375, 0.09375, 0.09375, 0.09375, 0.09375, 0.09375, 0.09375, 0.09375, 0.09375, 0.09375, 0.09375, 0.09375, 0.09375]","[0.17838541666666666, 0.17838541666666666, 0.17838541666666666, 0.17838541666666666, 0.17838541666666666, 0.17838541666666666, 0.17838541666666666, 0.17838541666666666, 0.17838541666666666, 0.17838541666666666, 0.17838541666666666, 0.17838541666666666, 0.17838541666666666]","[0, 0, 0, 0, 0, 0, 0, 0, 0, 0, 0, 0, 0]","[0, 0, 0, 0, 0, 0, 0, 0, 0, 0, 0, 0, 0]","[0, 0, 0, 0, 0, 0, 0, 0, 0, 0, 0, 0, 0]","[0.004585099872201681, 0.016081799985840917, 0.026809899834915996, 0.04242929979227483, 0.059408599976450205, 0.07572959992103279, 0.09228809992782772, 0.10895069991238415, 0.1257598998490721, 0.14229049999266863, 0.15896229981444776, 0.1755723999813199, 0.19269439997151494]",31.10449680010788,None,"[1, 1, 1, 1, 1, 1, 1, 1, 1, 1, 1, 1, 1]",50,31.10449680010788,None,31.10449680010788,None,31.10449680010788,None,31.10449680010788,None,,,,,,,,,,,,,,,,,a,001,2020_Jun_24_1953,pAdaptTest3,2020.1.3,59.95408713153207,
1,1,29,0,28,28,28,,,,,,,,,"[0.09375, 0.09375, 0.09375, 0.09375, 0.09375, 0.09375, 0.09375, 0.09375, 0.09375, 0.09375, 0.09375, 0.09375, 0.09375, 0.09375, 0.09375, 0.09375, 0.09375, 0.09375]","[0.17838541666666666, 0.17838541666666666, 0.17838541666666666, 0.17838541666666666, 0.17838541666666666, 0.17838541666666666, 0.17838541666666666, 0.17838541666666666, 0.17838541666666666, 0.17838541666666666, 0.17838541666666666, 0.17838541666666666, 0.17838541666666666, 0.17838541666666666, 0.17838541666666666, 0.17838541666666666, 0.17838541666666666, 0.17838541666666666]","[0, 0, 0, 0, 0, 0, 0, 0, 0, 0, 0, 0, 0, 0, 0, 0, 0, 0]","[0, 0, 0, 0, 0, 0, 0, 0, 0, 0, 0, 0, 0, 0, 0, 0, 0, 0]","[0, 0, 0, 0, 0, 0, 0, 0, 0, 0, 0, 0, 0, 0, 0, 0, 0, 0]","[0.004416300216689706, 0.01548760011792183, 0.026976400054991245, 0.042296800063923, 0.05895610013976693, 0.07558820000849664, 0.09304070007055998, 0.1089265001937747, 0.1256667000707239, 0.142338200006634, 0.1587897001300007, 0.1756988000124693, 0.19237780012190342, 0.2091911002062261, 0.22556350007653236, 0.24230610020458698, 0.25898280018009245, 0.2761105000972748]",31.304448700044304,None,"[1, 1, 1, 1, 1, 1, 1, 1, 1, 1, 1, 1, 1, 1, 1, 1, 1, 1]",40,31.304448700044304,None,31.304448700044304,None,31.304448700044304,None,31.304448700044304,None,,,,,,,,,,,,,,,,,a,001,2020_Jun_24_1953,pAdaptTest3,2020.1.3,59.95408713153207,
1,1,30,0,29,29,29,,,,,,,,,"[0.09375, 0.09375, 0.09375, 0.09375, 0.09375, 0.09375, 0.09375, 0.09375, 0.09375, 0.09375, 0.09375, 0.09375, 0.09375, 0.09375, 0.09375]","[0.17838541666666666, 0.17838541666666666, 0.17838541666666666, 0.17838541666666666, 0.17838541666666666, 0.17838541666666666, 0.17838541666666666, 0.17838541666666666, 0.17838541666666666, 0.17838541666666666, 0.17838541666666666, 0.17838541666666666, 0.17838541666666666, 0.17838541666666666, 0.17838541666666666]","[0, 0, 0, 0, 0, 0, 0, 0, 0, 0, 0, 0, 0, 0, 0]","[0, 0, 0, 0, 0, 0, 0, 0, 0, 0, 0, 0, 0, 0, 0]","[0, 0, 0, 0, 0, 0, 0, 0, 0, 0, 0, 0, 0, 0, 0]","[0.004418199881911278, 0.015697999857366085, 0.04187739989720285, 0.05897779995575547, 0.07544029993005097, 0.09211059985682368, 0.1087491000071168, 0.12544470001012087, 0.14215720002539456, 0.15887030004523695, 0.17538299993611872, 0.1921017998829484, 0.20875329989939928, 0.22540750005282462, 0.24212439986877143]",31.587722400203347,None,"[1, 1, 1, 1, 1, 1, 1, 1, 1, 1, 1, 1, 1, 1, 1]",50,31.587722400203347,None,31.587722400203347,None,31.587722400203347,None,31.587722400203347,None,,,,,,,,,,,,,,,,,a,001,2020_Jun_24_1953,pAdaptTest3,2020.1.3,59.95408713153207,
1,1,31,0,30,30,30,,,,,,,,,"[0.09375, 0.09375, 0.09375, 0.09375, 0.09375, 0.09375, 0.09375, 0.09375, 0.09375, 0.09375, 0.09375, 0.09375, 0.09375, 0.09375]","[0.17838541666666666, 0.17838541666666666, 0.17838541666666666, 0.17838541666666666, 0.17838541666666666, 0.17838541666666666, 0.17838541666666666, 0.17838541666666666, 0.17838541666666666, 0.17838541666666666, 0.17838541666666666, 0.17838541666666666, 0.17838541666666666, 0.17838541666666666]","[0, 0, 0, 0, 0, 0, 0, 0, 0, 0, 0, 0, 0, 0]","[0, 0, 0, 0, 0, 0, 0, 0, 0, 0, 0, 0, 0, 0]","[0, 0, 0, 0, 0, 0, 0, 0, 0, 0, 0, 0, 0, 0]","[0.004485300043597817, 0.01612249994650483, 0.041511999908834696, 0.05901660001836717, 0.07571929995901883, 0.09234059997834265, 0.10891430010087788, 0.12570110009983182, 0.142336199991405, 0.15985250007361174, 0.17578210006467998, 0.19218800007365644, 0.2089144999627024, 0.22644050000235438]",31.837663100101054,None,"[1, 1, 1, 1, 1, 1, 1, 1, 1, 1, 1, 1, 1, 1]",40,31.837663100101054,None,31.837663100101054,None,31.837663100101054,None,31.837663100101054,None,,,,,,,,,,,,,,,,,a,001,2020_Jun_24_1953,pAdaptTest3,2020.1.3,59.95408713153207,
1,1,32,0,31,31,31,,,,,,,,,"[0.09375, 0.09375, 0.09375, 0.09375, 0.09375, 0.09375, 0.09375, 0.09375, 0.09375, 0.09375, 0.09375, 0.09375, 0.09375, 0.09375, 0.09375, 0.09375, 0.09375, 0.09375, 0.09375, 0.09375, 0.09375, 0.09375, 0.09375, 0.09375, 0.09375, 0.09375, 0.09375, 0.09375]","[0.17838541666666666, 0.17838541666666666, 0.17838541666666666, 0.17838541666666666, 0.17838541666666666, 0.17838541666666666, 0.17838541666666666, 0.17838541666666666, 0.17838541666666666, 0.17838541666666666, 0.17838541666666666, 0.17838541666666666, 0.17838541666666666, 0.17838541666666666, 0.17838541666666666, 0.17838541666666666, 0.17838541666666666, 0.17838541666666666, 0.17838541666666666, 0.17838541666666666, 0.17838541666666666, 0.17838541666666666, 0.17838541666666666, 0.17838541666666666, 0.17838541666666666, 0.17838541666666666, 0.17838541666666666, 0.17838541666666666]","[0, 0, 0, 0, 0, 0, 0, 0, 0, 0, 0, 0, 0, 0, 0, 0, 0, 0, 0, 0, 0, 0, 0, 0, 0, 0, 0, 0]","[0, 0, 0, 0, 0, 0, 0, 0, 0, 0, 0, 0, 0, 0, 0, 0, 0, 0, 0, 0, 0, 0, 0, 0, 0, 0, 0, 0]","[0, 0, 0, 0, 0, 0, 0, 0, 0, 0, 0, 0, 0, 0, 0, 0, 0, 0, 0, 0, 0, 0, 0, 0, 0, 0, 0, 0]","[0.0045779000502079725, 0.014938399894163013, 0.025902600027620792, 0.04185939999297261, 0.058508799877017736, 0.07521589985117316, 0.09259080002084374, 0.10853679990395904, 0.12504499987699091, 0.14176200004294515, 0.15855870000086725, 0.17506069992668927, 0.19190039997920394, 0.20872429991140962, 0.22519339993596077, 0.24201779998838902, 0.2585286998655647, 0.2752425998914987, 0.2916723999660462, 0.3085076999850571, 0.32511009997688234, 0.34171469998545945, 0.3583533999044448, 0.37501149997115135, 0.39165450003929436, 0.40850769984535873, 0.42502349987626076, 0.44220189983025193]",32.071322300005704,None,"[1, 1, 1, 1, 1, 1, 1, 1, 1, 1, 1, 1, 1, 1, 1, 1, 1, 1, 1, 1, 1, 1, 1, 1, 1, 1, 1, 1]",50,32.071322300005704,None,32.071322300005704,None,32.071322300005704,None,32.071322300005704,None,,,,,,,,,,,,,,,,,a,001,2020_Jun_24_1953,pAdaptTest3,2020.1.3,59.95408713153207,
1,1,33,0,32,32,32,,,,,,,,,"[0.09375, 0.09375, 0.09375, 0.09375, 0.09375, 0.09375, 0.09375, 0.09375, 0.09375, 0.09375, 0.09375, 0.09375, 0.09375, 0.09375]","[0.17838541666666666, 0.17838541666666666, 0.17838541666666666, 0.17838541666666666, 0.17838541666666666, 0.17838541666666666, 0.17838541666666666, 0.17838541666666666, 0.17838541666666666, 0.17838541666666666, 0.17838541666666666, 0.17838541666666666, 0.17838541666666666, 0.17838541666666666]","[0, 0, 0, 0, 0, 0, 0, 0, 0, 0, 0, 0, 0, 0]","[0, 0, 0, 0, 0, 0, 0, 0, 0, 0, 0, 0, 0, 0]","[0, 0, 0, 0, 0, 0, 0, 0, 0, 0, 0, 0, 0, 0]","[0.004633100004866719, 0.015141100157052279, 0.026213099947199225, 0.04201520001515746, 0.058770000003278255, 0.07543930015526712, 0.09197960002347827, 0.10873940004967153, 0.1252538999542594, 0.1419661999680102, 0.15867820009589195, 0.17565620015375316, 0.19202700001187623, 0.20919349999167025]",32.52079650014639,None,"[1, 1, 1, 1, 1, 1, 1, 1, 1, 1, 1, 1, 1, 1]",40,32.52079650014639,None,32.52079650014639,None,32.52079650014639,None,32.52079650014639,None,,,,,,,,,,,,,,,,,a,001,2020_Jun_24_1953,pAdaptTest3,2020.1.3,59.95408713153207,
1,1,34,0,33,33,33,,,,,,,,,"[0.09375, 0.09375, 0.09375, 0.09375, 0.09375, 0.09375, 0.09375, 0.09375, 0.09375, 0.09375, 0.09375, 0.09375, 0.09375, 0.09375, 0.09375, 0.09375, 0.09375]","[0.17838541666666666, 0.17838541666666666, 0.17838541666666666, 0.17838541666666666, 0.17838541666666666, 0.17838541666666666, 0.17838541666666666, 0.17838541666666666, 0.17838541666666666, 0.17838541666666666, 0.17838541666666666, 0.17838541666666666, 0.17838541666666666, 0.17838541666666666, 0.1796875, 0.1796875, 0.17838541666666666]","[0, 0, 0, 0, 0, 0, 0, 0, 0, 0, 0, 0, 0, 0, 0, 0, 0]","[0, 0, 0, 0, 0, 0, 0, 0, 0, 0, 0, 0, 0, 0, 0, 0, 0]","[0, 0, 0, 0, 0, 0, 0, 0, 0, 0, 0, 0, 0, 0, 0, 0, 0]","[0.004114599898457527, 0.015199899906292558, 0.026909699896350503, 0.042799599934369326, 0.059486999874934554, 0.07622109982185066, 0.09294419991783798, 0.10941939987242222, 0.1260938998311758, 0.14278170000761747, 0.1595922999549657, 0.17624980001710355, 0.19286349997855723, 0.2094731000252068, 0.22650039987638593, 0.24306540004909039, 0.26020769984461367]",32.73679710016586,None,"[1, 1, 1, 1, 1, 1, 1, 1, 1, 1, 1, 1, 1, 1, 1, 1, 1]",50,32.73679710016586,None,32.73679710016586,None,32.73679710016586,None,32.73679710016586,None,,,,,,,,,,,,,,,,,a,001,2020_Jun_24_1953,pAdaptTest3,2020.1.3,59.95408713153207,
1,1,35,0,34,34,34,,,,,,,,,"[0.09375, 0.09375, 0.09375, 0.09375, 0.09375, 0.09375, 0.09375, 0.09375, 0.09375, 0.09375, 0.09375, 0.09375]","[0.1796875, 0.1796875, 0.1796875, 0.1796875, 0.1796875, 0.1796875, 0.1796875, 0.18098958333333334, 0.18098958333333334, 0.18098958333333334, 0.18098958333333334, 0.18098958333333334]","[0, 0, 0, 0, 0, 0, 0, 0, 0, 0, 0, 0]","[0, 0, 0, 0, 0, 0, 0, 0, 0, 0, 0, 0]","[0, 0, 0, 0, 0, 0, 0, 0, 0, 0, 0, 0]","[0.006925499998033047, 0.01734400005079806, 0.04127060016617179, 0.05887780012562871, 0.07549630012363195, 0.09229640010744333, 0.10942560015246272, 0.1253748000599444, 0.14204370020888746, 0.15888290014117956, 0.175523100188002, 0.1920326000545174]",33.00600290019065,None,"[1, 1, 1, 1, 1, 1, 1, 1, 1, 1, 1, 1]",40,33.00600290019065,None,33.00600290019065,None,33.00600290019065,None,33.00600290019065,None,,,,,,,,,,,,,,,,,a,001,2020_Jun_24_1953,pAdaptTest3,2020.1.3,59.95408713153207,
1,1,36,0,35,35,35,,,,,,,,,"[0.09375, 0.09375, 0.09375, 0.09375, 0.09375, 0.09375, 0.09375, 0.09375, 0.09375, 0.09375, 0.09375, 0.09375, 0.09375, 0.09375, 0.09375]","[0.18098958333333334, 0.18098958333333334, 0.18098958333333334, 0.18098958333333334, 0.18098958333333334, 0.18098958333333334, 0.18098958333333334, 0.18098958333333334, 0.18098958333333334, 0.18098958333333334, 0.18098958333333334, 0.18098958333333334, 0.18229166666666666, 0.18619791666666666, 0.18619791666666666]","[0, 0, 0, 0, 0, 0, 0, 0, 0, 0, 0, 0, 0, 0, 0]","[0, 0, 0, 0, 0, 0, 0, 0, 0, 0, 0, 0, 0, 0, 0]","[0, 0, 0, 0, 0, 0, 0, 0, 0, 0, 0, 0, 0, 0, 0]","[0.004132600035518408, 0.0141183000523597, 0.02659680019132793, 0.04331160010769963, 0.059989399975165725, 0.07673590001650155, 0.09370580012910068, 0.10996060003526509, 0.12662200001068413, 0.1432115000206977, 0.15992770018056035, 0.17660230002366006, 0.19362320005893707, 0.20990390004590154, 0.22892910009250045]",33.20198920019902,None,"[1, 1, 1, 1, 1, 1, 1, 1, 1, 1, 1, 1, 1, 1, 1]",50,33.20198920019902,None,33.20198920019902,None,33.20198920019902,None,33.20198920019902,None,,,,,,,,,,,,,,,,,a,001,2020_Jun_24_1953,pAdaptTest3,2020.1.3,59.95408713153207,
2,2,1,,,,,0,0,0,0,33.43305890006013,None,33.89908610004932,None,,,,,,,,,"[1, 1, 1, 1, 1, 1, 1, 1, 1, 1, 1, 1, 1, 1, 1, 1, 1, 1, 1, 1, 1, 1, 1, 1, 1, 1, 1, 1, 1, 1, 1, 1, 1, 1, 1, 1, 1, 2, 2, 2, 2, 2, 2, 2, 2, 2, 2, 2, 2, 2, 2, 2, 2, 2, 2, 2, 2, 2, 2, 2, 2, 2, 2, 2, 2, 2, 2, 3, 3, 3, 3, 3, 3, 3, 3, 3, 3, 3, 3, 3, 3, 3, 3, 3, 3, 3, 3, 3, 3, 3, 3, 3, 3, 3, 3, 3, 3, 3, 3, 3, 3, 3, 3, 3, 3, 3, 3, 3]",40,,,,,,,,,"[-0.0625, -0.0625, -0.0625, -0.0625, -0.0625, -0.0625, -0.061197916666666664, -0.053385416666666664, -0.033854166666666664, -0.006510416666666667, 0.033854166666666664, 0.09895833333333333, 0.11588541666666667, 0.14453125, 0.14973958333333334, 0.15104166666666666, 0.15364583333333334, 0.15885416666666666, 0.16536458333333334, 0.16666666666666666, 0.16276041666666666, 0.15234375, 0.140625, 0.125, 0.10807291666666667, 0.08854166666666667, 0.07682291666666667, 0.06770833333333333, 0.061197916666666664, 0.0546875, 0.049479166666666664, 0.045572916666666664, 0.04296875, 0.040364583333333336, 0.033854166666666664, 0.028645833333333332, 0.0234375, 0.022135416666666668, 0.016927083333333332, 0.014322916666666666, 0.0078125, 0.00390625, 0.0013020833333333333, -0.0013020833333333333, -0.0026041666666666665, -0.00390625, -0.00390625, -0.005208333333333333, -0.005208333333333333, -0.005208333333333333, -0.005208333333333333, 0.0013020833333333333, 0.015625, 0.0390625, 0.07682291666666667, 0.12369791666666667, 0.1640625, 0.20442708333333334, 0.24869791666666666, 0.2669270833333333, 0.2760416666666667, 0.28125, 0.2890625, 0.2981770833333333, 0.30859375, 0.3177083333333333, 0.3268229166666667, 0.33203125, 0.3346354166666667, 0.3385416666666667, 0.33984375, 0.33984375, 0.33984375, 0.33984375, 0.33984375, 0.3385416666666667, 0.3372395833333333, 0.3372395833333333, 0.3359375, 0.3333333333333333, 0.3255208333333333, 0.3177083333333333, 0.2890625, 0.2578125, 0.203125, 0.14192708333333334, 0.08463541666666667, 0.04296875, 0.018229166666666668, 0.01171875, 0.009114583333333334, 0.006510416666666667, 0.00390625, 0.0013020833333333333, -0.0026041666666666665, -0.005208333333333333, -0.009114583333333334, -0.01171875, -0.015625, -0.022135416666666668, -0.02734375, -0.033854166666666664, -0.03515625, -0.036458333333333336, -0.036458333333333336, -0.033854166666666664, -0.028645833333333332, -0.0234375]","[0.21875, 0.21875, 0.21744791666666666, 0.21744791666666666, 0.21744791666666666, 0.21744791666666666, 0.21614583333333334, 0.21614583333333334, 0.21614583333333334, 0.21744791666666666, 0.21875, 0.22265625, 0.22395833333333334, 0.22395833333333334, 0.22265625, 0.22135416666666666, 0.21484375, 0.20182291666666666, 0.17578125, 0.15885416666666666, 0.14583333333333334, 0.12369791666666667, 0.10286458333333333, 0.08072916666666667, 0.05859375, 0.036458333333333336, 0.026041666666666668, 0.016927083333333332, 0.01171875, 0.006510416666666667, 0.0026041666666666665, -0.0013020833333333333, -0.0013020833333333333, -0.0013020833333333333, 0.0013020833333333333, 0.005208333333333333, 0.0078125, 0.0078125, 0.010416666666666666, 0.013020833333333334, 0.015625, 0.018229166666666668, 0.018229166666666668, 0.018229166666666668, 0.018229166666666668, 0.018229166666666668, 0.018229166666666668, 0.018229166666666668, 0.018229166666666668, 0.018229166666666668, 0.018229166666666668, 0.018229166666666668, 0.022135416666666668, 0.037760416666666664, 0.06770833333333333, 0.11588541666666667, 0.15104166666666666, 0.17578125, 0.19401041666666666, 0.20182291666666666, 0.20703125, 0.20833333333333334, 0.20963541666666666, 0.20963541666666666, 0.20963541666666666, 0.20963541666666666, 0.20963541666666666, 0.20963541666666666, 0.20963541666666666, 0.20963541666666666, 0.20963541666666666, 0.20963541666666666, 0.20963541666666666, 0.20963541666666666, 0.20963541666666666, 0.20703125, 0.203125, 0.203125, 0.20182291666666666, 0.20182291666666666, 0.20182291666666666, 0.20182291666666666, 0.19661458333333334, 0.18880208333333334, 0.17578125, 0.15625, 0.12890625, 0.10677083333333333, 0.08723958333333333, 0.07942708333333333, 0.07421875, 0.07161458333333333, 0.06770833333333333, 0.06380208333333333, 0.05859375, 0.053385416666666664, 0.049479166666666664, 0.045572916666666664, 0.04296875, 0.037760416666666664, 0.032552083333333336, 0.0234375, 0.020833333333333332, 0.018229166666666668, 0.016927083333333332, 0.014322916666666666, 0.010416666666666666, 0.0078125]","[0, 0, 0, 0, 0, 0, 0, 0, 0, 0, 0, 0, 0, 0, 0, 0, 0, 0, 0, 0, 0, 0, 0, 0, 0, 0, 0, 0, 0, 0, 0, 0, 0, 0, 0, 0, 0, 0, 0, 0, 0, 0, 0, 0, 0, 0, 0, 0, 0, 0, 0, 0, 0, 0, 0, 0, 0, 0, 0, 0, 0, 0, 0, 0, 0, 0, 0, 0, 0, 0, 0, 0, 0, 0, 0, 0, 0, 0, 0, 0, 0, 0, 0, 0, 0, 0, 0, 0, 0, 0, 0, 0, 0, 0, 0, 0, 0, 0, 0, 0, 0, 0, 0, 0, 0, 0, 0, 0]","[0, 0, 0, 0, 0, 0, 0, 0, 0, 0, 0, 0, 0, 0, 0, 0, 0, 0, 0, 0, 0, 0, 0, 0, 0, 0, 0, 0, 0, 0, 0, 0, 0, 0, 0, 0, 0, 0, 0, 0, 0, 0, 0, 0, 0, 0, 0, 0, 0, 0, 0, 0, 0, 0, 0, 0, 0, 0, 0, 0, 0, 0, 0, 0, 0, 0, 0, 0, 0, 0, 0, 0, 0, 0, 0, 0, 0, 0, 0, 0, 0, 0, 0, 0, 0, 0, 0, 0, 0, 0, 0, 0, 0, 0, 0, 0, 0, 0, 0, 0, 0, 0, 0, 0, 0, 0, 0, 0]","[0, 0, 0, 0, 0, 0, 0, 0, 0, 0, 0, 0, 0, 0, 0, 0, 0, 0, 0, 0, 0, 0, 0, 0, 0, 0, 0, 0, 0, 0, 0, 0, 0, 0, 0, 0, 0, 0, 0, 0, 0, 0, 0, 0, 0, 0, 0, 0, 0, 0, 0, 0, 0, 0, 0, 0, 0, 0, 0, 0, 0, 0, 0, 0, 0, 0, 0, 0, 0, 0, 0, 0, 0, 0, 0, 0, 0, 0, 0, 0, 0, 0, 0, 0, 0, 0, 0, 0, 0, 0, 0, 0, 0, 0, 0, 0, 0, 0, 0, 0, 0, 0, 0, 0, 0, 0, 0, 0]","[0.004439899930730462, 0.015118699986487627, 0.03759289998561144, 0.055056799901649356, 0.07187109999358654, 0.08878650004044175, 0.1053940998390317, 0.12208939995616674, 0.13857209985144436, 0.15526219992898405, 0.172004499938339, 0.18874619994312525, 0.20538860000669956, 0.22201729984954, 0.23891799990087748, 0.2552443000022322, 0.2720858999527991, 0.28923900006338954, 0.3053758000023663, 0.3226546999067068, 0.3386075999587774, 0.35539969988167286, 0.3718351998832077, 0.38961279997602105, 0.4053513999097049, 0.42195179988630116, 0.4387017998378724, 0.4553801999427378, 0.47202220000326633, 0.4889495999086648, 0.5053301998414099, 0.5222058999352157, 0.5385561999864876, 0.5553830000571907, 0.5719571998342872, 0.5890611000359058, 0.6056041000410914, 0.6220282998401672, 0.6384993998799473, 0.6553026998881251, 0.6718388998415321, 0.6889553999062628, 0.7054598999675363, 0.7219876998569816, 0.7391796000301838, 0.7550250999629498, 0.7718942000064999, 0.7882232998963445, 0.8049761999864131, 0.8219810998998582, 0.8384680999442935, 0.8552282999735326, 0.871971899876371, 0.8885369000490755, 0.9051518999040127, 0.9221524000167847, 0.93855269998312, 0.9552410000469536, 0.9717802000232041, 0.9884601000230759, 1.005107699893415, 1.021827699849382, 1.0385606000199914, 1.0552260000258684, 1.071977199986577, 1.0885476998519152, 1.105007299920544, 1.1217367998324335, 1.1394360999111086, 1.1549537999089807, 1.1715365999843925, 1.1880640999879688, 1.2047248999588192, 1.2212052999529988, 1.2384734998922795, 1.255325200036168, 1.2714147998485714, 1.2886959000024945, 1.3046871998813003, 1.3217843000311404, 1.3383750000502914, 1.3555770998355001, 1.3718727000523359, 1.3884262000210583, 1.4049378000199795, 1.4217346999794245, 1.4384397000540048, 1.455519099952653, 1.4718581000342965, 1.488407599972561, 1.5051343999803066, 1.521580500062555, 1.5384144999552518, 1.5550611999351531, 1.5718143999110907, 1.5884511999320239, 1.6052083999384195, 1.621907299850136, 1.638204999966547, 1.6550024999305606, 1.6721434998326004, 1.6884631998836994, 1.7051502000540495, 1.7217578999698162, 1.7381676000077277, 1.7550420998595655, 1.7719484998378903, 1.7885199000593275]",34.92342250002548,None,34.92342250002548,None,34.92342250002548,None,34.92342250002548,None,34.92342250002548,None,a,001,2020_Jun_24_1953,pAdaptTest3,2020.1.3,59.95408713153207,
2,2,2,,,,,0,1,1,1,,,,,,,,,,,,,"[1, 1, 2, 2, 2, 2, 2, 2, 2, 2, 2, 2, 2, 2, 2, 2, 2, 2, 2, 2, 2, 2, 2, 2, 2, 2, 2, 2, 2, 2, 2, 2, 2, 2, 2, 2, 2, 2, 2, 2, 2, 2, 2, 2, 3, 3, 3, 3, 3, 3, 3, 3, 3, 3, 3, 3, 3, 3, 3, 3, 3, 3, 3, 3, 3, 3, 3, 3, 3, 3, 3, 3, 3, 3, 3, 3, 3, 3, 3, 3, 3, 3]",50,,,,,,,,,"[-0.014322916666666666, -0.0026041666666666665, 0.0026041666666666665, 0.00390625, 0.00390625, 0.00390625, 0.00390625, 0.00390625, 0.005208333333333333, 0.006510416666666667, 0.0078125, 0.009114583333333334, 0.01171875, 0.018229166666666668, 0.028645833333333332, 0.0390625, 0.055989583333333336, 0.07291666666666667, 0.10286458333333333, 0.14713541666666666, 0.1796875, 0.203125, 0.2265625, 0.24348958333333334, 0.2513020833333333, 0.2578125, 0.2591145833333333, 0.2604166666666667, 0.26171875, 0.2630208333333333, 0.2669270833333333, 0.26953125, 0.2734375, 0.2786458333333333, 0.28125, 0.2864583333333333, 0.2890625, 0.2890625, 0.2903645833333333, 0.2903645833333333, 0.2903645833333333, 0.2890625, 0.2890625, 0.28515625, 0.2838541666666667, 0.2838541666666667, 0.2838541666666667, 0.2838541666666667, 0.2838541666666667, 0.2838541666666667, 0.2838541666666667, 0.2838541666666667, 0.2838541666666667, 0.2799479166666667, 0.2682291666666667, 0.2526041666666667, 0.22395833333333334, 0.20833333333333334, 0.19010416666666666, 0.17317708333333334, 0.14973958333333334, 0.12630208333333334, 0.10546875, 0.078125, 0.06901041666666667, 0.06380208333333333, 0.061197916666666664, 0.05859375, 0.057291666666666664, 0.0546875, 0.052083333333333336, 0.048177083333333336, 0.046875, 0.044270833333333336, 0.040364583333333336, 0.03515625, 0.028645833333333332, 0.0234375, 0.018229166666666668, 0.013020833333333334, 0.009114583333333334, 0.0078125]","[0.005208333333333333, 0.0026041666666666665, 0.0026041666666666665, 0.0026041666666666665, 0.0026041666666666665, 0.0026041666666666665, 0.0026041666666666665, 0.0026041666666666665, 0.0026041666666666665, 0.0026041666666666665, 0.0026041666666666665, 0.0026041666666666665, 0.0026041666666666665, 0.0078125, 0.01953125, 0.03515625, 0.0625, 0.08723958333333333, 0.12109375, 0.16666666666666666, 0.1875, 0.19791666666666666, 0.2109375, 0.21875, 0.22265625, 0.22526041666666666, 0.22526041666666666, 0.22526041666666666, 0.22526041666666666, 0.22526041666666666, 0.22526041666666666, 0.22526041666666666, 0.22526041666666666, 0.22526041666666666, 0.22526041666666666, 0.22526041666666666, 0.22526041666666666, 0.22526041666666666, 0.2265625, 0.22916666666666666, 0.23307291666666666, 0.23567708333333334, 0.24088541666666666, 0.25, 0.2526041666666667, 0.2526041666666667, 0.2526041666666667, 0.25390625, 0.25390625, 0.25390625, 0.25390625, 0.25390625, 0.25390625, 0.2526041666666667, 0.24739583333333334, 0.23697916666666666, 0.21744791666666666, 0.20703125, 0.19401041666666666, 0.1796875, 0.16536458333333334, 0.14453125, 0.12760416666666666, 0.10677083333333333, 0.09765625, 0.09375, 0.08984375, 0.08723958333333333, 0.0859375, 0.08333333333333333, 0.078125, 0.07421875, 0.0703125, 0.06640625, 0.0625, 0.055989583333333336, 0.048177083333333336, 0.04296875, 0.037760416666666664, 0.03125, 0.026041666666666668, 0.022135416666666668]","[0, 0, 0, 0, 0, 0, 0, 0, 0, 0, 0, 0, 0, 0, 0, 0, 0, 0, 0, 0, 0, 0, 0, 0, 0, 0, 0, 0, 0, 0, 0, 0, 0, 0, 0, 0, 0, 0, 0, 0, 0, 0, 0, 0, 0, 0, 0, 0, 0, 0, 0, 0, 0, 0, 0, 0, 0, 0, 0, 0, 0, 0, 0, 0, 0, 0, 0, 0, 0, 0, 0, 0, 0, 0, 0, 0, 0, 0, 0, 0, 0, 0]","[0, 0, 0, 0, 0, 0, 0, 0, 0, 0, 0, 0, 0, 0, 0, 0, 0, 0, 0, 0, 0, 0, 0, 0, 0, 0, 0, 0, 0, 0, 0, 0, 0, 0, 0, 0, 0, 0, 0, 0, 0, 0, 0, 0, 0, 0, 0, 0, 0, 0, 0, 0, 0, 0, 0, 0, 0, 0, 0, 0, 0, 0, 0, 0, 0, 0, 0, 0, 0, 0, 0, 0, 0, 0, 0, 0, 0, 0, 0, 0, 0, 0]","[0, 0, 0, 0, 0, 0, 0, 0, 0, 0, 0, 0, 0, 0, 0, 0, 0, 0, 0, 0, 0, 0, 0, 0, 0, 0, 0, 0, 0, 0, 0, 0, 0, 0, 0, 0, 0, 0, 0, 0, 0, 0, 0, 0, 0, 0, 0, 0, 0, 0, 0, 0, 0, 0, 0, 0, 0, 0, 0, 0, 0, 0, 0, 0, 0, 0, 0, 0, 0, 0, 0, 0, 0, 0, 0, 0, 0, 0, 0, 0, 0, 0]","[0.004626700188964605, 0.016420100117102265, 0.03495960007421672, 0.05225070007145405, 0.06882170005701482, 0.08662159997038543, 0.10220100008882582, 0.11919880006462336, 0.13563240016810596, 0.15326990000903606, 0.16931220004335046, 0.18594830017536879, 0.20268810004927218, 0.21915490017272532, 0.23576229996979237, 0.252464700024575, 0.26916610007174313, 0.28597740014083683, 0.302632600069046, 0.31916960002854466, 0.3356632001232356, 0.352354200091213, 0.36910670017823577, 0.38580540008842945, 0.4030818999744952, 0.4186621999833733, 0.4356172999832779, 0.4523869000840932, 0.4690688999835402, 0.4858182000461966, 0.5023682001046836, 0.519126099999994, 0.5356948999688029, 0.5524053000845015, 0.5690662001725286, 0.5857903000432998, 0.6022703000344336, 0.6190367001108825, 0.6357333001215011, 0.6523235000204295, 0.6689534999895841, 0.6856079001445323, 0.7022564001381397, 0.719303400022909, 0.7354333000257611, 0.7519908000249416, 0.7689378000795841, 0.785322800045833, 0.8019389000255615, 0.818736300105229, 0.8354601000901312, 0.8521496001631021, 0.8689592001028359, 0.885642800014466, 0.9025012999773026, 0.9190169000066817, 0.9360905000939965, 0.9528547001536936, 0.9690328000579029, 0.9855498000979424, 1.002341500017792, 1.0188732000533491, 1.036003699991852, 1.0522376000881195, 1.0689469000790268, 1.0855952000711113, 1.1024015001021326, 1.1188931001815945, 1.1356446000281721, 1.1522687000688165, 1.169036400038749, 1.1854376001283526, 1.202361200004816, 1.2188330001663417, 1.2354971000459045, 1.2522415001876652, 1.2689434001222253, 1.285700700012967, 1.3022179000545293, 1.3188561999704689, 1.3354526001494378, 1.352875899989158]",36.72740490012802,None,36.72740490012802,None,36.72740490012802,None,36.72740490012802,None,36.72740490012802,None,a,001,2020_Jun_24_1953,pAdaptTest3,2020.1.3,59.95408713153207,
2,2,3,,,,,0,2,2,2,,,,,,,,,,,,,"[1, 1, 2, 2, 2, 2, 2, 2, 2, 2, 2, 2, 2, 2, 2, 2, 2, 2, 2, 2, 2, 2, 2, 2, 2, 2, 2, 2, 2, 2, 2, 2, 2, 2, 2, 2, 2, 3, 3, 3, 3, 3, 3, 3, 3, 3, 3, 3, 3, 3, 3, 3, 3, 3, 3, 3, 3, 3, 3, 3, 3, 3, 3, 3, 3, 3, 3, 3, 3, 3]",40,,,,,,,,,"[0.005208333333333333, 0.00390625, 0.0026041666666666665, 0.0026041666666666665, 0.0026041666666666665, 0.0026041666666666665, 0.0026041666666666665, 0.0026041666666666665, 0.0026041666666666665, 0.00390625, 0.009114583333333334, 0.01953125, 0.053385416666666664, 0.07942708333333333, 0.12109375, 0.16927083333333334, 0.23177083333333334, 0.29296875, 0.3333333333333333, 0.37109375, 0.3854166666666667, 0.3919270833333333, 0.3958333333333333, 0.3984375, 0.3984375, 0.3997395833333333, 0.3997395833333333, 0.4010416666666667, 0.40234375, 0.4036458333333333, 0.4049479166666667, 0.4049479166666667, 0.4049479166666667, 0.4049479166666667, 0.39453125, 0.3723958333333333, 0.3502604166666667, 0.3138020833333333, 0.2864583333333333, 0.2591145833333333, 0.2513020833333333, 0.24869791666666666, 0.24869791666666666, 0.24869791666666666, 0.24869791666666666, 0.24869791666666666, 0.24869791666666666, 0.24869791666666666, 0.24869791666666666, 0.24869791666666666, 0.24869791666666666, 0.23958333333333334, 0.22265625, 0.1953125, 0.16276041666666666, 0.12890625, 0.09375, 0.055989583333333336, 0.03515625, 0.026041666666666668, 0.018229166666666668, 0.015625, 0.013020833333333334, 0.010416666666666666, 0.0078125, 0.0078125, 0.006510416666666667, 0.006510416666666667, 0.00390625, 0.00390625]","[0.01953125, 0.015625, 0.01171875, 0.00390625, -0.0013020833333333333, -0.006510416666666667, -0.010416666666666666, -0.013020833333333334, -0.013020833333333334, -0.013020833333333334, -0.0078125, 0.0026041666666666665, 0.029947916666666668, 0.046875, 0.07291666666666667, 0.09244791666666667, 0.1171875, 0.13671875, 0.14973958333333334, 0.16536458333333334, 0.17057291666666666, 0.17838541666666666, 0.18359375, 0.1875, 0.18880208333333334, 0.19010416666666666, 0.19140625, 0.19401041666666666, 0.19661458333333334, 0.20052083333333334, 0.20572916666666666, 0.20963541666666666, 0.20963541666666666, 0.2109375, 0.21614583333333334, 0.22526041666666666, 0.2265625, 0.20963541666666666, 0.1953125, 0.18489583333333334, 0.18098958333333334, 0.1796875, 0.1796875, 0.1796875, 0.1796875, 0.1796875, 0.1796875, 0.1796875, 0.1796875, 0.1796875, 0.17708333333333334, 0.16796875, 0.15104166666666666, 0.1328125, 0.109375, 0.08723958333333333, 0.06770833333333333, 0.046875, 0.0390625, 0.03515625, 0.032552083333333336, 0.032552083333333336, 0.03125, 0.03125, 0.029947916666666668, 0.029947916666666668, 0.028645833333333332, 0.02734375, 0.026041666666666668, 0.0234375]","[0, 0, 0, 0, 0, 0, 0, 0, 0, 0, 0, 0, 0, 0, 0, 0, 0, 0, 0, 0, 0, 0, 0, 0, 0, 0, 0, 0, 0, 0, 0, 0, 0, 0, 0, 0, 0, 0, 0, 0, 0, 0, 0, 0, 0, 0, 0, 0, 0, 0, 0, 0, 0, 0, 0, 0, 0, 0, 0, 0, 0, 0, 0, 0, 0, 0, 0, 0, 0, 0]","[0, 0, 0, 0, 0, 0, 0, 0, 0, 0, 0, 0, 0, 0, 0, 0, 0, 0, 0, 0, 0, 0, 0, 0, 0, 0, 0, 0, 0, 0, 0, 0, 0, 0, 0, 0, 0, 0, 0, 0, 0, 0, 0, 0, 0, 0, 0, 0, 0, 0, 0, 0, 0, 0, 0, 0, 0, 0, 0, 0, 0, 0, 0, 0, 0, 0, 0, 0, 0, 0]","[0, 0, 0, 0, 0, 0, 0, 0, 0, 0, 0, 0, 0, 0, 0, 0, 0, 0, 0, 0, 0, 0, 0, 0, 0, 0, 0, 0, 0, 0, 0, 0, 0, 0, 0, 0, 0, 0, 0, 0, 0, 0, 0, 0, 0, 0, 0, 0, 0, 0, 0, 0, 0, 0, 0, 0, 0, 0, 0, 0, 0, 0, 0, 0, 0, 0, 0, 0, 0, 0]","[0.005507300142198801, 0.016893200110644102, 0.04012760007753968, 0.05765980016440153, 0.07431860012002289, 0.09091330016963184, 0.10777100012637675, 0.12406750000081956, 0.14069340005517006, 0.15767260012216866, 0.17424080008640885, 0.19116410007700324, 0.20826750015839934, 0.22449960000813007, 0.24093010020442307, 0.2574758999980986, 0.2742490000091493, 0.29103560000658035, 0.30765190022066236, 0.3243404000531882, 0.3411722001619637, 0.3576335001271218, 0.3742854001466185, 0.3908299000468105, 0.4076887001283467, 0.4244236000813544, 0.44084990001283586, 0.4576568000484258, 0.47414220008067787, 0.4913103000726551, 0.5074935001321137, 0.5239755001384765, 0.5406607000622898, 0.5575446002185345, 0.5741161000914872, 0.5912129001226276, 0.6076338000129908, 0.6244356001261622, 0.640971900196746, 0.6578523002099246, 0.6741880001500249, 0.6905190001707524, 0.7071665001567453, 0.7239271001890302, 0.7411857000552118, 0.7571431000251323, 0.7738644001074135, 0.7903783000074327, 0.8070390000939369, 0.8241609001997858, 0.840800000121817, 0.8575531002134085, 0.8742488001007587, 0.8912273000460118, 0.9075438000727445, 0.9242345001548529, 0.9407896001357585, 0.9577179001644254, 0.9741971001494676, 0.9906349000521004, 1.0075017001945525, 1.0240573000628501, 1.0410010002087802, 1.058115400141105, 1.0736868001986295, 1.0903526002075523, 1.1073816001880914, 1.124005800113082, 1.140945800114423, 1.1573721000459045]",38.08851800020784,None,38.08851800020784,None,38.08851800020784,None,38.08851800020784,None,38.08851800020784,None,a,001,2020_Jun_24_1953,pAdaptTest3,2020.1.3,59.95408713153207,
2,2,4,,,,,0,3,3,3,,,,,,,,,,,,,"[1, 1, 2, 2, 2, 2, 2, 2, 2, 2, 2, 2, 2, 2, 2, 2, 2, 2, 2, 2, 2, 2, 2, 2, 2, 2, 2, 2, 2, 2, 2, 2, 2, 2, 2, 2, 2, 2, 2, 3, 3, 3, 3, 3, 3, 3, 3, 3, 3, 3, 3, 3, 3, 3, 3, 3, 3, 3, 3, 3, 3, 3, 3, 3, 3, 3, 3, 3, 3, 3, 3, 3, 3, 3, 3, 3, 3, 3, 3, 3, 3, 3, 3, 3, 3, 3, 3, 3, 3, 3, 3, 3, 3, 3, 3, 3, 3, 3, 3, 3, 3, 3, 3, 3, 3]",50,,,,,,,,,"[0.00390625, 0.00390625, 0.00390625, 0.00390625, 0.00390625, 0.00390625, 0.00390625, 0.00390625, 0.00390625, 0.0026041666666666665, 0.0026041666666666665, 0.0026041666666666665, 0.0026041666666666665, 0.0026041666666666665, 0.009114583333333334, 0.020833333333333332, 0.0390625, 0.0546875, 0.08984375, 0.11458333333333333, 0.14322916666666666, 0.16927083333333334, 0.20182291666666666, 0.22916666666666666, 0.2604166666666667, 0.27734375, 0.2903645833333333, 0.3033854166666667, 0.3125, 0.3177083333333333, 0.32421875, 0.3255208333333333, 0.3268229166666667, 0.3268229166666667, 0.3255208333333333, 0.3255208333333333, 0.32421875, 0.31640625, 0.3059895833333333, 0.296875, 0.2903645833333333, 0.2864583333333333, 0.28125, 0.26953125, 0.2669270833333333, 0.2669270833333333, 0.2669270833333333, 0.2669270833333333, 0.2669270833333333, 0.2669270833333333, 0.265625, 0.2630208333333333, 0.2578125, 0.24348958333333334, 0.22135416666666666, 0.19270833333333334, 0.16276041666666666, 0.12760416666666666, 0.109375, 0.09635416666666667, 0.08463541666666667, 0.07421875, 0.06640625, 0.055989583333333336, 0.048177083333333336, 0.037760416666666664, 0.029947916666666668, 0.020833333333333332, 0.010416666666666666, 0.00390625, -0.0013020833333333333, -0.00390625, -0.005208333333333333, -0.006510416666666667, -0.009114583333333334, -0.013020833333333334, -0.015625, -0.015625, -0.015625, -0.015625, -0.015625, -0.015625, -0.015625, -0.015625, -0.015625, -0.009114583333333334, 0.010416666666666666, 0.041666666666666664, 0.09765625, 0.12630208333333334, 0.14322916666666666, 0.1484375, 0.14973958333333334, 0.14973958333333334, 0.14583333333333334, 0.13411458333333334, 0.12369791666666667, 0.109375, 0.09635416666666667, 0.08333333333333333, 0.06770833333333333, 0.0546875, 0.0390625, 0.024739583333333332, 0.013020833333333334]","[0.022135416666666668, 0.01953125, 0.016927083333333332, 0.013020833333333334, 0.010416666666666666, 0.009114583333333334, 0.009114583333333334, 0.009114583333333334, 0.0078125, 0.005208333333333333, 0.00390625, 0.0013020833333333333, 0.0013020833333333333, 0.0013020833333333333, 0.0013020833333333333, 0.009114583333333334, 0.0234375, 0.040364583333333336, 0.07552083333333333, 0.10026041666666667, 0.12369791666666667, 0.14583333333333334, 0.16666666666666666, 0.18229166666666666, 0.19921875, 0.20703125, 0.21354166666666666, 0.21875, 0.22526041666666666, 0.22916666666666666, 0.234375, 0.23697916666666666, 0.23828125, 0.24088541666666666, 0.24348958333333334, 0.24348958333333334, 0.24479166666666666, 0.25, 0.25390625, 0.2591145833333333, 0.2630208333333333, 0.265625, 0.26953125, 0.2747395833333333, 0.2747395833333333, 0.2747395833333333, 0.2747395833333333, 0.2747395833333333, 0.2747395833333333, 0.2747395833333333, 0.2669270833333333, 0.2513020833333333, 0.23046875, 0.203125, 0.17708333333333334, 0.14322916666666666, 0.11328125, 0.08072916666666667, 0.06380208333333333, 0.0546875, 0.048177083333333336, 0.044270833333333336, 0.041666666666666664, 0.040364583333333336, 0.0390625, 0.037760416666666664, 0.037760416666666664, 0.037760416666666664, 0.037760416666666664, 0.036458333333333336, 0.03515625, 0.03515625, 0.032552083333333336, 0.032552083333333336, 0.03125, 0.028645833333333332, 0.024739583333333332, 0.0234375, 0.0234375, 0.0234375, 0.0234375, 0.022135416666666668, 0.022135416666666668, 0.022135416666666668, 0.022135416666666668, 0.022135416666666668, 0.03125, 0.049479166666666664, 0.07552083333333333, 0.0859375, 0.08723958333333333, 0.08723958333333333, 0.08723958333333333, 0.08723958333333333, 0.0859375, 0.078125, 0.06901041666666667, 0.05859375, 0.052083333333333336, 0.046875, 0.041666666666666664, 0.037760416666666664, 0.028645833333333332, 0.015625, 0.0013020833333333333]","[0, 0, 0, 0, 0, 0, 0, 0, 0, 0, 0, 0, 0, 0, 0, 0, 0, 0, 0, 0, 0, 0, 0, 0, 0, 0, 0, 0, 0, 0, 0, 0, 0, 0, 0, 0, 0, 0, 0, 0, 0, 0, 0, 0, 0, 0, 0, 0, 0, 0, 0, 0, 0, 0, 0, 0, 0, 0, 0, 0, 0, 0, 0, 0, 0, 0, 0, 0, 0, 0, 0, 0, 0, 0, 0, 0, 0, 0, 0, 0, 0, 0, 0, 0, 0, 0, 0, 0, 0, 0, 0, 0, 0, 0, 0, 0, 0, 0, 0, 0, 0, 0, 0, 0, 0]","[0, 0, 0, 0, 0, 0, 0, 0, 0, 0, 0, 0, 0, 0, 0, 0, 0, 0, 0, 0, 0, 0, 0, 0, 0, 0, 0, 0, 0, 0, 0, 0, 0, 0, 0, 0, 0, 0, 0, 0, 0, 0, 0, 0, 0, 0, 0, 0, 0, 0, 0, 0, 0, 0, 0, 0, 0, 0, 0, 0, 0, 0, 0, 0, 0, 0, 0, 0, 0, 0, 0, 0, 0, 0, 0, 0, 0, 0, 0, 0, 0, 0, 0, 0, 0, 0, 0, 0, 0, 0, 0, 0, 0, 0, 0, 0, 0, 0, 0, 0, 0, 0, 0, 0, 0]","[0, 0, 0, 0, 0, 0, 0, 0, 0, 0, 0, 0, 0, 0, 0, 0, 0, 0, 0, 0, 0, 0, 0, 0, 0, 0, 0, 0, 0, 0, 0, 0, 0, 0, 0, 0, 0, 0, 0, 0, 0, 0, 0, 0, 0, 0, 0, 0, 0, 0, 0, 0, 0, 0, 0, 0, 0, 0, 0, 0, 0, 0, 0, 0, 0, 0, 0, 0, 0, 0, 0, 0, 0, 0, 0, 0, 0, 0, 0, 0, 0, 0, 0, 0, 0, 0, 0, 0, 0, 0, 0, 0, 0, 0, 0, 0, 0, 0, 0, 0, 0, 0, 0, 0, 0]","[0.0057825997937470675, 0.016448199981823564, 0.04074769979342818, 0.0582179999910295, 0.07483749999664724, 0.09123119991272688, 0.10843059979379177, 0.12462319992482662, 0.14154879981651902, 0.15794539987109601, 0.17506489995867014, 0.19134359993040562, 0.2079170998185873, 0.225437399931252, 0.24154529999941587, 0.258219099836424, 0.2748463999014348, 0.291529499925673, 0.30830289982259274, 0.325644499855116, 0.3415177999995649, 0.3581296999473125, 0.3749208999797702, 0.3915879998821765, 0.4079934998881072, 0.42502919980324805, 0.44161339988932014, 0.458329799817875, 0.474714299896732, 0.49159879982471466, 0.5083444998599589, 0.5248449998907745, 0.5421068998984993, 0.5582873998209834, 0.5745200999081135, 0.5914944999385625, 0.607977099949494, 0.6248945998959243, 0.6417673998512328, 0.6581486999057233, 0.6746506998315454, 0.6916437998879701, 0.7081408000085503, 0.7247357999440283, 0.7411592998541892, 0.7581807000096887, 0.7744105998426676, 0.7912514999043196, 0.8076931999530643, 0.8247383998241276, 0.8414706999901682, 0.8585035998839885, 0.8746229999233037, 0.8914572999347001, 0.9080608999356627, 0.9249213999137282, 0.9413629998452961, 0.9581375999841839, 0.9746908999513835, 0.991452099988237, 1.0081161998677999, 1.0247490999754518, 1.0414328998886049, 1.058136799838394, 1.0746110999025404, 1.0911633998621255, 1.1079309999477118, 1.1246734999585897, 1.141215099953115, 1.158089199801907, 1.1749956998974085, 1.1912918000016361, 1.2079928999301046, 1.224705999949947, 1.2411987998057157, 1.2583125999663025, 1.274477900005877, 1.2909202999435365, 1.3076539000030607, 1.3241889998316765, 1.3411147999577224, 1.3574906999710947, 1.3743111998774111, 1.3909430999774486, 1.4077614999841899, 1.424495699815452, 1.4410726998466998, 1.4580025998875499, 1.4746796998661011, 1.4917686998378485, 1.507750099990517, 1.5244491999037564, 1.5408082997892052, 1.5577679998241365, 1.5746392998844385, 1.5913372999057174, 1.6077572999056429, 1.6245095999911427, 1.6415330998133868, 1.6580107999034226, 1.674653199966997, 1.6910931000020355, 1.7079237999860197, 1.724518399918452, 1.7415420999750495]",39.25413490016945,None,39.25413490016945,None,39.25413490016945,None,39.25413490016945,None,39.25413490016945,None,a,001,2020_Jun_24_1953,pAdaptTest3,2020.1.3,59.95408713153207,
2,2,5,,,,,0,4,4,4,,,,,,,,,,,,,"[1, 1, 2, 2, 2, 2, 2, 2, 2, 2, 2, 2, 2, 2, 2, 2, 2, 2, 2, 2, 2, 2, 2, 2, 2, 2, 2, 2, 2, 2, 2, 2, 2, 2, 2, 3, 3, 3, 3, 3, 3, 3, 3, 3, 3, 3, 3, 3, 3, 3, 3, 3, 3, 3, 3, 3, 3, 3, 3, 3, 3, 3, 3, 3, 3, 3, 3, 3, 3, 3, 3, 3, 3, 3, 3, 3, 3, 3, 3, 3]",40,,,,,,,,,"[0.006510416666666667, 0.0026041666666666665, 0.0013020833333333333, 0.0013020833333333333, 0.0013020833333333333, 0.0013020833333333333, 0.0013020833333333333, 0.0013020833333333333, 0.0013020833333333333, 0.0026041666666666665, 0.005208333333333333, 0.0078125, 0.01171875, 0.015625, 0.018229166666666668, 0.018229166666666668, 0.018229166666666668, 0.018229166666666668, 0.0234375, 0.040364583333333336, 0.07552083333333333, 0.1328125, 0.16666666666666666, 0.19401041666666666, 0.22005208333333334, 0.23958333333333334, 0.26953125, 0.2747395833333333, 0.2903645833333333, 0.2942708333333333, 0.296875, 0.2981770833333333, 0.3020833333333333, 0.3059895833333333, 0.3151041666666667, 0.3190104166666667, 0.3216145833333333, 0.3255208333333333, 0.3307291666666667, 0.3372395833333333, 0.34375, 0.34375, 0.34375, 0.34375, 0.34375, 0.34375, 0.3385416666666667, 0.3268229166666667, 0.3151041666666667, 0.2981770833333333, 0.2760416666666667, 0.24479166666666666, 0.18880208333333334, 0.14192708333333334, 0.10677083333333333, 0.07421875, 0.053385416666666664, 0.040364583333333336, 0.028645833333333332, 0.022135416666666668, 0.01953125, 0.016927083333333332, 0.013020833333333334, 0.0078125, 0.0, -0.01171875, -0.01953125, -0.02734375, -0.033854166666666664, -0.040364583333333336, -0.044270833333333336, -0.045572916666666664, -0.045572916666666664, -0.04296875, -0.040364583333333336, -0.0390625, -0.03515625, -0.03125, -0.026041666666666668, -0.022135416666666668]","[-0.0078125, -0.014322916666666666, -0.016927083333333332, -0.018229166666666668, -0.018229166666666668, -0.018229166666666668, -0.018229166666666668, -0.018229166666666668, -0.018229166666666668, -0.016927083333333332, -0.015625, -0.013020833333333334, -0.01171875, -0.009114583333333334, -0.0078125, -0.006510416666666667, -0.006510416666666667, -0.005208333333333333, -0.0026041666666666665, 0.013020833333333334, 0.044270833333333336, 0.11067708333333333, 0.15364583333333334, 0.18359375, 0.203125, 0.21484375, 0.22395833333333334, 0.22395833333333334, 0.22395833333333334, 0.22395833333333334, 0.22265625, 0.22265625, 0.22005208333333334, 0.21744791666666666, 0.21484375, 0.21354166666666666, 0.21354166666666666, 0.21354166666666666, 0.21223958333333334, 0.2109375, 0.20703125, 0.20703125, 0.20703125, 0.20703125, 0.20703125, 0.20572916666666666, 0.20442708333333334, 0.19921875, 0.19270833333333334, 0.18359375, 0.17317708333333334, 0.15494791666666666, 0.12109375, 0.09505208333333333, 0.07942708333333333, 0.06770833333333333, 0.05859375, 0.052083333333333336, 0.046875, 0.044270833333333336, 0.041666666666666664, 0.0390625, 0.036458333333333336, 0.032552083333333336, 0.028645833333333332, 0.024739583333333332, 0.01953125, 0.015625, 0.013020833333333334, 0.010416666666666666, 0.006510416666666667, 0.00390625, 0.0013020833333333333, 0.0, -0.0013020833333333333, -0.0026041666666666665, -0.00390625, -0.005208333333333333, -0.005208333333333333, -0.005208333333333333]","[0, 0, 0, 0, 0, 0, 0, 0, 0, 0, 0, 0, 0, 0, 0, 0, 0, 0, 0, 0, 0, 0, 0, 0, 0, 0, 0, 0, 0, 0, 0, 0, 0, 0, 0, 0, 0, 0, 0, 0, 0, 0, 0, 0, 0, 0, 0, 0, 0, 0, 0, 0, 0, 0, 0, 0, 0, 0, 0, 0, 0, 0, 0, 0, 0, 0, 0, 0, 0, 0, 0, 0, 0, 0, 0, 0, 0, 0, 0, 0]","[0, 0, 0, 0, 0, 0, 0, 0, 0, 0, 0, 0, 0, 0, 0, 0, 0, 0, 0, 0, 0, 0, 0, 0, 0, 0, 0, 0, 0, 0, 0, 0, 0, 0, 0, 0, 0, 0, 0, 0, 0, 0, 0, 0, 0, 0, 0, 0, 0, 0, 0, 0, 0, 0, 0, 0, 0, 0, 0, 0, 0, 0, 0, 0, 0, 0, 0, 0, 0, 0, 0, 0, 0, 0, 0, 0, 0, 0, 0, 0]","[0, 0, 0, 0, 0, 0, 0, 0, 0, 0, 0, 0, 0, 0, 0, 0, 0, 0, 0, 0, 0, 0, 0, 0, 0, 0, 0, 0, 0, 0, 0, 0, 0, 0, 0, 0, 0, 0, 0, 0, 0, 0, 0, 0, 0, 0, 0, 0, 0, 0, 0, 0, 0, 0, 0, 0, 0, 0, 0, 0, 0, 0, 0, 0, 0, 0, 0, 0, 0, 0, 0, 0, 0, 0, 0, 0, 0, 0, 0, 0]","[0.005768299801275134, 0.018172399839386344, 0.039913199841976166, 0.05741230002604425, 0.07413810002617538, 0.09066520002670586, 0.10740539990365505, 0.1240187999792397, 0.14104369981214404, 0.15777079993858933, 0.17468379996716976, 0.19133149995468557, 0.20772489998489618, 0.22438619984313846, 0.24090570001862943, 0.2573155998252332, 0.2745225999969989, 0.29095269995741546, 0.3077612000051886, 0.32432329980656505, 0.3408923998940736, 0.35771979996934533, 0.37433179980143905, 0.3909849999472499, 0.40768019994720817, 0.425594599917531, 0.4410514999181032, 0.4578503998927772, 0.4742969998624176, 0.49098829994909465, 0.5076476000249386, 0.524354699999094, 0.5409946998115629, 0.5579160999041051, 0.5744084999896586, 0.5919929000083357, 0.6082817998249084, 0.624240699922666, 0.6408989999908954, 0.6575692999176681, 0.6740264999680221, 0.6904810999985784, 0.7076343998778611, 0.7238541999831796, 0.7408990999683738, 0.757606899831444, 0.7741084999870509, 0.7908528000116348, 0.8077979998197407, 0.8241969000082463, 0.8409032998606563, 0.857449600007385, 0.8741711999755353, 0.8908108999021351, 0.9075485998764634, 0.9241402999032289, 0.9411016998346895, 0.9574716999195516, 0.9740936998277903, 0.9908067998476326, 1.0074791999068111, 1.0239899000152946, 1.040693299844861, 1.0575095999520272, 1.0741104998160154, 1.0909996000118554, 1.1075293999165297, 1.1244581998325884, 1.1407129999715835, 1.1575601999647915, 1.1741543000098318, 1.1908536998089403, 1.2072842000052333, 1.2248107998166233, 1.2407668000087142, 1.2577473998535424, 1.2742651000153273, 1.290707599837333, 1.3074425000231713, 1.3242444000206888]",41.00557710020803,None,41.00557710020803,None,41.00557710020803,None,41.00557710020803,None,41.00557710020803,None,a,001,2020_Jun_24_1953,pAdaptTest3,2020.1.3,59.95408713153207,
2,2,6,,,,,0,5,5,5,,,,,,,,,,,,,"[1, 1, 2, 2, 2, 2, 2, 2, 2, 2, 2, 2, 2, 2, 2, 2, 2, 2, 2, 2, 2, 2, 2, 2, 2, 2, 2, 2, 2, 2, 2, 2, 2, 2, 2, 2, 2, 3, 3, 3, 3, 3, 3, 3, 3, 3, 3, 3, 3, 3, 3, 3, 3, 3, 3, 3, 3, 3, 3, 3, 3, 3, 3, 3, 3, 3, 3, 3, 3, 3, 3, 3, 3, 3, 3]",50,,,,,,,,,"[-0.01953125, -0.01171875, -0.009114583333333334, -0.0013020833333333333, 0.0026041666666666665, 0.0026041666666666665, 0.00390625, 0.00390625, 0.00390625, 0.00390625, 0.00390625, 0.00390625, 0.005208333333333333, 0.01171875, 0.018229166666666668, 0.032552083333333336, 0.053385416666666664, 0.09375, 0.12369791666666667, 0.16015625, 0.1953125, 0.22395833333333334, 0.24609375, 0.2578125, 0.26171875, 0.2643229166666667, 0.265625, 0.2669270833333333, 0.2669270833333333, 0.2669270833333333, 0.2669270833333333, 0.2669270833333333, 0.26953125, 0.2747395833333333, 0.28125, 0.29296875, 0.30078125, 0.3059895833333333, 0.3098958333333333, 0.3098958333333333, 0.3098958333333333, 0.3098958333333333, 0.3098958333333333, 0.3098958333333333, 0.3098958333333333, 0.3098958333333333, 0.3098958333333333, 0.3098958333333333, 0.3098958333333333, 0.3098958333333333, 0.3046875, 0.28515625, 0.26171875, 0.22786458333333334, 0.16276041666666666, 0.11979166666666667, 0.08984375, 0.06770833333333333, 0.055989583333333336, 0.053385416666666664, 0.052083333333333336, 0.052083333333333336, 0.05078125, 0.049479166666666664, 0.045572916666666664, 0.041666666666666664, 0.03515625, 0.02734375, 0.0234375, 0.016927083333333332, 0.010416666666666666, 0.0026041666666666665, -0.0026041666666666665, -0.005208333333333333, -0.005208333333333333]","[-0.005208333333333333, -0.00390625, -0.0013020833333333333, 0.0, 0.0026041666666666665, 0.0026041666666666665, 0.0026041666666666665, 0.0026041666666666665, 0.0026041666666666665, 0.0026041666666666665, 0.0026041666666666665, 0.0026041666666666665, 0.00390625, 0.006510416666666667, 0.013020833333333334, 0.0234375, 0.036458333333333336, 0.0625, 0.08072916666666667, 0.09895833333333333, 0.11848958333333333, 0.13671875, 0.14973958333333334, 0.1640625, 0.17057291666666666, 0.17708333333333334, 0.18098958333333334, 0.18359375, 0.1875, 0.19661458333333334, 0.203125, 0.20833333333333334, 0.21484375, 0.22265625, 0.23177083333333334, 0.24739583333333334, 0.2578125, 0.2669270833333333, 0.2734375, 0.2786458333333333, 0.2825520833333333, 0.2877604166666667, 0.2903645833333333, 0.2916666666666667, 0.29296875, 0.29296875, 0.29296875, 0.29296875, 0.29296875, 0.29296875, 0.2877604166666667, 0.2721354166666667, 0.24739583333333334, 0.20833333333333334, 0.15364583333333334, 0.11588541666666667, 0.09375, 0.078125, 0.06901041666666667, 0.06640625, 0.06510416666666667, 0.06380208333333333, 0.06380208333333333, 0.0625, 0.061197916666666664, 0.059895833333333336, 0.055989583333333336, 0.05078125, 0.048177083333333336, 0.044270833333333336, 0.040364583333333336, 0.03515625, 0.028645833333333332, 0.024739583333333332, 0.018229166666666668]","[0, 0, 0, 0, 0, 0, 0, 0, 0, 0, 0, 0, 0, 0, 0, 0, 0, 0, 0, 0, 0, 0, 0, 0, 0, 0, 0, 0, 0, 0, 0, 0, 0, 0, 0, 0, 0, 0, 0, 0, 0, 0, 0, 0, 0, 0, 0, 0, 0, 0, 0, 0, 0, 0, 0, 0, 0, 0, 0, 0, 0, 0, 0, 0, 0, 0, 0, 0, 0, 0, 0, 0, 0, 0, 0]","[0, 0, 0, 0, 0, 0, 0, 0, 0, 0, 0, 0, 0, 0, 0, 0, 0, 0, 0, 0, 0, 0, 0, 0, 0, 0, 0, 0, 0, 0, 0, 0, 0, 0, 0, 0, 0, 0, 0, 0, 0, 0, 0, 0, 0, 0, 0, 0, 0, 0, 0, 0, 0, 0, 0, 0, 0, 0, 0, 0, 0, 0, 0, 0, 0, 0, 0, 0, 0, 0, 0, 0, 0, 0, 0]","[0, 0, 0, 0, 0, 0, 0, 0, 0, 0, 0, 0, 0, 0, 0, 0, 0, 0, 0, 0, 0, 0, 0, 0, 0, 0, 0, 0, 0, 0, 0, 0, 0, 0, 0, 0, 0, 0, 0, 0, 0, 0, 0, 0, 0, 0, 0, 0, 0, 0, 0, 0, 0, 0, 0, 0, 0, 0, 0, 0, 0, 0, 0, 0, 0, 0, 0, 0, 0, 0, 0, 0, 0, 0, 0]","[0.005807699868455529, 0.01668099989183247, 0.04049509996548295, 0.057988799875602126, 0.07453009998425841, 0.09129750006832182, 0.10841730004176497, 0.1243501000571996, 0.14102009986527264, 0.15759940003044903, 0.17426800006069243, 0.1908621999900788, 0.20781349996104836, 0.22497650003060699, 0.24111009994521737, 0.2578666000626981, 0.2745969998650253, 0.2910736999474466, 0.30776829994283617, 0.32456659991294146, 0.3412653999403119, 0.35795910004526377, 0.3744101000484079, 0.39120219997130334, 0.4077141999732703, 0.4245104999281466, 0.44120949995703995, 0.45781080005690455, 0.4745068000629544, 0.49125960003584623, 0.5076888999901712, 0.5244982000440359, 0.5415123999118805, 0.5578203999903053, 0.5745420998428017, 0.5911381000187248, 0.6078331000171602, 0.6243715998716652, 0.643471899908036, 0.6581234000623226, 0.674723899923265, 0.6911547998897731, 0.707797999959439, 0.7243739999830723, 0.7408731000032276, 0.757992499973625, 0.7742218999192119, 0.7906861000228673, 0.8073704999405891, 0.8244064999744296, 0.8409859999082983, 0.8588123000226915, 0.8745786000508815, 0.8910868999082595, 0.9077172998804599, 0.9245311999693513, 0.9410518000368029, 0.9577440998982638, 0.9745674999430776, 0.9909361000172794, 1.007501999847591, 1.0241455000359565, 1.0411344999447465, 1.0576583000365645, 1.0753627000376582, 1.0910117998719215, 1.107600999996066, 1.124493199866265, 1.1411053999327123, 1.1577117000706494, 1.174667099956423, 1.191067700041458, 1.207737599965185, 1.2243566999677569, 1.2411199000198394]",42.337202300084755,None,42.337202300084755,None,42.337202300084755,None,42.337202300084755,None,42.337202300084755,None,a,001,2020_Jun_24_1953,pAdaptTest3,2020.1.3,59.95408713153207,
2,2,7,,,,,0,6,6,6,,,,,,,,,,,,,"[1, 1, 2, 2, 2, 2, 2, 2, 2, 2, 2, 2, 2, 2, 2, 2, 2, 2, 2, 2, 2, 2, 2, 2, 2, 2, 2, 2, 2, 2, 2, 2, 2, 2, 2, 2, 2, 2, 2, 2, 3, 3, 3, 3, 3, 3, 3, 3, 3, 3, 3, 3, 3, 3, 3, 3, 3, 3, 3, 3, 3, 3, 3, 3, 3, 3, 3, 3, 3, 3, 3, 3, 3, 3]",40,,,,,,,,,"[-0.005208333333333333, -0.005208333333333333, -0.006510416666666667, -0.0078125, -0.0078125, -0.006510416666666667, -0.006510416666666667, -0.005208333333333333, -0.005208333333333333, -0.005208333333333333, -0.005208333333333333, -0.005208333333333333, -0.0026041666666666665, 0.010416666666666666, 0.03125, 0.055989583333333336, 0.10026041666666667, 0.1171875, 0.15494791666666666, 0.19401041666666666, 0.21875, 0.23567708333333334, 0.24739583333333334, 0.2552083333333333, 0.26171875, 0.2643229166666667, 0.26953125, 0.2760416666666667, 0.28515625, 0.29296875, 0.3033854166666667, 0.30859375, 0.3125, 0.3177083333333333, 0.3216145833333333, 0.3255208333333333, 0.3268229166666667, 0.3307291666666667, 0.3333333333333333, 0.3372395833333333, 0.33984375, 0.34375, 0.34765625, 0.3489583333333333, 0.3502604166666667, 0.3502604166666667, 0.3502604166666667, 0.3502604166666667, 0.3502604166666667, 0.3502604166666667, 0.3463541666666667, 0.3385416666666667, 0.33203125, 0.32421875, 0.31640625, 0.2890625, 0.26171875, 0.2109375, 0.16276041666666666, 0.12369791666666667, 0.1015625, 0.09244791666666667, 0.0859375, 0.07942708333333333, 0.07291666666666667, 0.06640625, 0.059895833333333336, 0.0546875, 0.048177083333333336, 0.04296875, 0.036458333333333336, 0.028645833333333332, 0.0234375, 0.016927083333333332]","[0.016927083333333332, 0.014322916666666666, 0.010416666666666666, 0.005208333333333333, 0.0026041666666666665, -0.0026041666666666665, -0.00390625, -0.005208333333333333, -0.005208333333333333, -0.005208333333333333, -0.005208333333333333, -0.005208333333333333, -0.00390625, 0.0026041666666666665, 0.020833333333333332, 0.04296875, 0.078125, 0.08854166666666667, 0.10807291666666667, 0.12760416666666666, 0.13932291666666666, 0.14713541666666666, 0.15234375, 0.15494791666666666, 0.15755208333333334, 0.15755208333333334, 0.15885416666666666, 0.15885416666666666, 0.16015625, 0.16276041666666666, 0.1640625, 0.16666666666666666, 0.16796875, 0.17057291666666666, 0.17317708333333334, 0.17708333333333334, 0.18098958333333334, 0.18619791666666666, 0.19270833333333334, 0.20052083333333334, 0.20572916666666666, 0.21223958333333334, 0.21744791666666666, 0.22005208333333334, 0.22005208333333334, 0.22005208333333334, 0.22005208333333334, 0.22005208333333334, 0.22005208333333334, 0.22005208333333334, 0.22005208333333334, 0.21875, 0.21614583333333334, 0.21223958333333334, 0.20442708333333334, 0.18098958333333334, 0.15885416666666666, 0.125, 0.09505208333333333, 0.0703125, 0.0546875, 0.048177083333333336, 0.044270833333333336, 0.041666666666666664, 0.037760416666666664, 0.033854166666666664, 0.029947916666666668, 0.026041666666666668, 0.022135416666666668, 0.01953125, 0.016927083333333332, 0.015625, 0.013020833333333334, 0.01171875]","[0, 0, 0, 0, 0, 0, 0, 0, 0, 0, 0, 0, 0, 0, 0, 0, 0, 0, 0, 0, 0, 0, 0, 0, 0, 0, 0, 0, 0, 0, 0, 0, 0, 0, 0, 0, 0, 0, 0, 0, 0, 0, 0, 0, 0, 0, 0, 0, 0, 0, 0, 0, 0, 0, 0, 0, 0, 0, 0, 0, 0, 0, 0, 0, 0, 0, 0, 0, 0, 0, 0, 0, 0, 0]","[0, 0, 0, 0, 0, 0, 0, 0, 0, 0, 0, 0, 0, 0, 0, 0, 0, 0, 0, 0, 0, 0, 0, 0, 0, 0, 0, 0, 0, 0, 0, 0, 0, 0, 0, 0, 0, 0, 0, 0, 0, 0, 0, 0, 0, 0, 0, 0, 0, 0, 0, 0, 0, 0, 0, 0, 0, 0, 0, 0, 0, 0, 0, 0, 0, 0, 0, 0, 0, 0, 0, 0, 0, 0]","[0, 0, 0, 0, 0, 0, 0, 0, 0, 0, 0, 0, 0, 0, 0, 0, 0, 0, 0, 0, 0, 0, 0, 0, 0, 0, 0, 0, 0, 0, 0, 0, 0, 0, 0, 0, 0, 0, 0, 0, 0, 0, 0, 0, 0, 0, 0, 0, 0, 0, 0, 0, 0, 0, 0, 0, 0, 0, 0, 0, 0, 0, 0, 0, 0, 0, 0, 0, 0, 0, 0, 0, 0, 0]","[0.005503299878910184, 0.016661099856719375, 0.04268629988655448, 0.05893549998290837, 0.07538639986887574, 0.0920573000330478, 0.10859890002757311, 0.1251282999292016, 0.14162609982304275, 0.15851380000822246, 0.1750076999887824, 0.19166380004025996, 0.20867359987460077, 0.22536419983953238, 0.24210509983822703, 0.2594435999635607, 0.2752793999388814, 0.2920366998296231, 0.30878790002316236, 0.3252699999138713, 0.34205379988998175, 0.35871669999323785, 0.37543349992483854, 0.39229379990138113, 0.4084697999060154, 0.4253233999479562, 0.44192119990475476, 0.4586680999491364, 0.4753401998896152, 0.4918714000377804, 0.5087345999199897, 0.5252071998547763, 0.5416353000327945, 0.5586097999475896, 0.5758173000067472, 0.5919378998223692, 0.6086001999210566, 0.6253565999213606, 0.6417892000172287, 0.6584528000093997, 0.6763519998639822, 0.6926451998297125, 0.7083796998485923, 0.7249427998904139, 0.7414953999686986, 0.7580897000152618, 0.77493069996126, 0.7916746998671442, 0.8082879998255521, 0.8252409000415355, 0.842037099879235, 0.8585263998247683, 0.8751666999887675, 0.8918661000207067, 0.9085585998836905, 0.9253103998489678, 0.9420076999813318, 0.9585180999711156, 0.9756870998535305, 0.9918749998323619, 1.00877849990502, 1.0250978998374194, 1.0420289000030607, 1.0586043000221252, 1.0757579999044538, 1.091941999970004, 1.1089164998847991, 1.1250614998862147, 1.1420342000201344, 1.1584649998694658, 1.175065399846062, 1.1918097999878228, 1.208491099998355, 1.2250143999699503]",43.58647590014152,None,43.58647590014152,None,43.58647590014152,None,43.58647590014152,None,43.58647590014152,None,a,001,2020_Jun_24_1953,pAdaptTest3,2020.1.3,59.95408713153207,
